Date:6 Feb 2023 18:54:35 GMT
 wavelen   Irradiance
   (nm)   uW/cm^2/nm
250.000   1.955e-002
250.100   1.967e-002
250.200   1.978e-002
250.300   1.990e-002
250.400   2.002e-002
250.500   2.013e-002
250.600   2.025e-002
250.700   2.037e-002
250.800   2.049e-002
250.900   2.061e-002
251.000   2.074e-002
251.100   2.086e-002
251.200   2.098e-002
251.300   2.111e-002
251.400   2.123e-002
251.500   2.136e-002
251.600   2.148e-002
251.700   2.161e-002
251.800   2.174e-002
251.900   2.187e-002
252.000   2.199e-002
252.100   2.212e-002
252.200   2.225e-002
252.300   2.239e-002
252.400   2.252e-002
252.500   2.265e-002
252.600   2.278e-002
252.700   2.292e-002
252.800   2.305e-002
252.900   2.319e-002
253.000   2.333e-002
253.100   2.346e-002
253.200   2.360e-002
253.300   2.374e-002
253.400   2.388e-002
253.500   2.402e-002
253.600   2.416e-002
253.700   2.430e-002
253.800   2.444e-002
253.900   2.459e-002
254.000   2.473e-002
254.100   2.487e-002
254.200   2.502e-002
254.300   2.516e-002
254.400   2.531e-002
254.500   2.546e-002
254.600   2.561e-002
254.700   2.576e-002
254.800   2.590e-002
254.900   2.606e-002
255.000   2.621e-002
255.100   2.636e-002
255.200   2.651e-002
255.300   2.666e-002
255.400   2.682e-002
255.500   2.697e-002
255.600   2.713e-002
255.700   2.728e-002
255.800   2.744e-002
255.900   2.760e-002
256.000   2.776e-002
256.100   2.792e-002
256.200   2.808e-002
256.300   2.824e-002
256.400   2.840e-002
256.500   2.856e-002
256.600   2.872e-002
256.700   2.889e-002
256.800   2.905e-002
256.900   2.922e-002
257.000   2.938e-002
257.100   2.955e-002
257.200   2.972e-002
257.300   2.989e-002
257.400   3.006e-002
257.500   3.022e-002
257.600   3.040e-002
257.700   3.057e-002
257.800   3.074e-002
257.900   3.091e-002
258.000   3.109e-002
258.100   3.126e-002
258.200   3.143e-002
258.300   3.161e-002
258.400   3.179e-002
258.500   3.196e-002
258.600   3.214e-002
258.700   3.232e-002
258.800   3.250e-002
258.900   3.268e-002
259.000   3.286e-002
259.100   3.305e-002
259.200   3.323e-002
259.300   3.341e-002
259.400   3.360e-002
259.500   3.378e-002
259.600   3.397e-002
259.700   3.415e-002
259.800   3.434e-002
259.900   3.453e-002
260.000   3.472e-002
260.100   3.491e-002
260.200   3.510e-002
260.300   3.529e-002
260.400   3.548e-002
260.500   3.568e-002
260.600   3.587e-002
260.700   3.607e-002
260.800   3.626e-002
260.900   3.646e-002
261.000   3.666e-002
261.100   3.685e-002
261.200   3.705e-002
261.300   3.725e-002
261.400   3.745e-002
261.500   3.765e-002
261.600   3.786e-002
261.700   3.806e-002
261.800   3.826e-002
261.900   3.847e-002
262.000   3.867e-002
262.100   3.888e-002
262.200   3.908e-002
262.300   3.929e-002
262.400   3.950e-002
262.500   3.971e-002
262.600   3.992e-002
262.700   4.013e-002
262.800   4.034e-002
262.900   4.056e-002
263.000   4.077e-002
263.100   4.098e-002
263.200   4.120e-002
263.300   4.141e-002
263.400   4.163e-002
263.500   4.185e-002
263.600   4.207e-002
263.700   4.229e-002
263.800   4.251e-002
263.900   4.273e-002
264.000   4.295e-002
264.100   4.317e-002
264.200   4.340e-002
264.300   4.362e-002
264.400   4.385e-002
264.500   4.407e-002
264.600   4.430e-002
264.700   4.453e-002
264.800   4.476e-002
264.900   4.499e-002
265.000   4.522e-002
265.100   4.545e-002
265.200   4.568e-002
265.300   4.591e-002
265.400   4.615e-002
265.500   4.638e-002
265.600   4.662e-002
265.700   4.686e-002
265.800   4.709e-002
265.900   4.733e-002
266.000   4.757e-002
266.100   4.781e-002
266.200   4.805e-002
266.300   4.829e-002
266.400   4.854e-002
266.500   4.878e-002
266.600   4.903e-002
266.700   4.927e-002
266.800   4.952e-002
266.900   4.977e-002
267.000   5.001e-002
267.100   5.026e-002
267.200   5.051e-002
267.300   5.076e-002
267.400   5.102e-002
267.500   5.127e-002
267.600   5.152e-002
267.700   5.178e-002
267.800   5.203e-002
267.900   5.229e-002
268.000   5.255e-002
268.100   5.281e-002
268.200   5.307e-002
268.300   5.333e-002
268.400   5.359e-002
268.500   5.385e-002
268.600   5.411e-002
268.700   5.438e-002
268.800   5.464e-002
268.900   5.491e-002
269.000   5.518e-002
269.100   5.544e-002
269.200   5.571e-002
269.300   5.598e-002
269.400   5.625e-002
269.500   5.653e-002
269.600   5.680e-002
269.700   5.707e-002
269.800   5.735e-002
269.900   5.762e-002
270.000   5.790e-002
270.100   5.818e-002
270.200   5.845e-002
270.300   5.873e-002
270.400   5.901e-002
270.500   5.929e-002
270.600   5.957e-002
270.700   5.985e-002
270.800   6.014e-002
270.900   6.042e-002
271.000   6.070e-002
271.100   6.099e-002
271.200   6.128e-002
271.300   6.157e-002
271.400   6.186e-002
271.500   6.215e-002
271.600   6.244e-002
271.700   6.273e-002
271.800   6.302e-002
271.900   6.332e-002
272.000   6.361e-002
272.100   6.391e-002
272.200   6.421e-002
272.300   6.451e-002
272.400   6.481e-002
272.500   6.511e-002
272.600   6.541e-002
272.700   6.571e-002
272.800   6.602e-002
272.900   6.632e-002
273.000   6.663e-002
273.100   6.694e-002
273.200   6.725e-002
273.300   6.756e-002
273.400   6.787e-002
273.500   6.818e-002
273.600   6.849e-002
273.700   6.881e-002
273.800   6.912e-002
273.900   6.944e-002
274.000   6.976e-002
274.100   7.008e-002
274.200   7.040e-002
274.300   7.072e-002
274.400   7.104e-002
274.500   7.136e-002
274.600   7.169e-002
274.700   7.201e-002
274.800   7.234e-002
274.900   7.267e-002
275.000   7.300e-002
275.100   7.333e-002
275.200   7.366e-002
275.300   7.399e-002
275.400   7.433e-002
275.500   7.466e-002
275.600   7.500e-002
275.700   7.534e-002
275.800   7.568e-002
275.900   7.602e-002
276.000   7.636e-002
276.100   7.670e-002
276.200   7.704e-002
276.300   7.739e-002
276.400   7.773e-002
276.500   7.808e-002
276.600   7.843e-002
276.700   7.878e-002
276.800   7.913e-002
276.900   7.948e-002
277.000   7.984e-002
277.100   8.019e-002
277.200   8.055e-002
277.300   8.090e-002
277.400   8.126e-002
277.500   8.162e-002
277.600   8.198e-002
277.700   8.235e-002
277.800   8.271e-002
277.900   8.307e-002
278.000   8.344e-002
278.100   8.381e-002
278.200   8.418e-002
278.300   8.455e-002
278.400   8.492e-002
278.500   8.529e-002
278.600   8.566e-002
278.700   8.604e-002
278.800   8.641e-002
278.900   8.679e-002
279.000   8.717e-002
279.100   8.755e-002
279.200   8.793e-002
279.300   8.831e-002
279.400   8.870e-002
279.500   8.908e-002
279.600   8.947e-002
279.700   8.986e-002
279.800   9.025e-002
279.900   9.064e-002
280.000   9.103e-002
280.100   9.142e-002
280.200   9.182e-002
280.300   9.222e-002
280.400   9.262e-002
280.500   9.302e-002
280.600   9.342e-002
280.700   9.382e-002
280.800   9.423e-002
280.900   9.463e-002
281.000   9.504e-002
281.100   9.545e-002
281.200   9.586e-002
281.300   9.627e-002
281.400   9.668e-002
281.500   9.709e-002
281.600   9.751e-002
281.700   9.792e-002
281.800   9.834e-002
281.900   9.876e-002
282.000   9.918e-002
282.100   9.960e-002
282.200   1.000e-001
282.300   1.004e-001
282.400   1.009e-001
282.500   1.013e-001
282.600   1.017e-001
282.700   1.022e-001
282.800   1.026e-001
282.900   1.030e-001
283.000   1.035e-001
283.100   1.039e-001
283.200   1.043e-001
283.300   1.048e-001
283.400   1.052e-001
283.500   1.056e-001
283.600   1.061e-001
283.700   1.065e-001
283.800   1.070e-001
283.900   1.074e-001
284.000   1.079e-001
284.100   1.083e-001
284.200   1.088e-001
284.300   1.092e-001
284.400   1.097e-001
284.500   1.101e-001
284.600   1.106e-001
284.700   1.110e-001
284.800   1.115e-001
284.900   1.119e-001
285.000   1.124e-001
285.100   1.129e-001
285.200   1.133e-001
285.300   1.138e-001
285.400   1.143e-001
285.500   1.147e-001
285.600   1.152e-001
285.700   1.157e-001
285.800   1.162e-001
285.900   1.166e-001
286.000   1.171e-001
286.100   1.176e-001
286.200   1.181e-001
286.300   1.185e-001
286.400   1.190e-001
286.500   1.195e-001
286.600   1.200e-001
286.700   1.205e-001
286.800   1.210e-001
286.900   1.214e-001
287.000   1.219e-001
287.100   1.224e-001
287.200   1.229e-001
287.300   1.234e-001
287.400   1.239e-001
287.500   1.244e-001
287.600   1.249e-001
287.700   1.254e-001
287.800   1.259e-001
287.900   1.264e-001
288.000   1.269e-001
288.100   1.274e-001
288.200   1.279e-001
288.300   1.284e-001
288.400   1.289e-001
288.500   1.294e-001
288.600   1.300e-001
288.700   1.305e-001
288.800   1.310e-001
288.900   1.315e-001
289.000   1.320e-001
289.100   1.325e-001
289.200   1.331e-001
289.300   1.336e-001
289.400   1.341e-001
289.500   1.346e-001
289.600   1.352e-001
289.700   1.357e-001
289.800   1.362e-001
289.900   1.368e-001
290.000   1.373e-001
290.100   1.378e-001
290.200   1.384e-001
290.300   1.389e-001
290.400   1.395e-001
290.500   1.400e-001
290.600   1.405e-001
290.700   1.411e-001
290.800   1.416e-001
290.900   1.422e-001
291.000   1.427e-001
291.100   1.433e-001
291.200   1.438e-001
291.300   1.444e-001
291.400   1.449e-001
291.500   1.455e-001
291.600   1.461e-001
291.700   1.466e-001
291.800   1.472e-001
291.900   1.477e-001
292.000   1.483e-001
292.100   1.489e-001
292.200   1.494e-001
292.300   1.500e-001
292.400   1.506e-001
292.500   1.512e-001
292.600   1.517e-001
292.700   1.523e-001
292.800   1.529e-001
292.900   1.535e-001
293.000   1.540e-001
293.100   1.546e-001
293.200   1.552e-001
293.300   1.558e-001
293.400   1.564e-001
293.500   1.570e-001
293.600   1.576e-001
293.700   1.582e-001
293.800   1.587e-001
293.900   1.593e-001
294.000   1.599e-001
294.100   1.605e-001
294.200   1.611e-001
294.300   1.617e-001
294.400   1.623e-001
294.500   1.629e-001
294.600   1.636e-001
294.700   1.642e-001
294.800   1.648e-001
294.900   1.654e-001
295.000   1.660e-001
295.100   1.666e-001
295.200   1.672e-001
295.300   1.679e-001
295.400   1.685e-001
295.500   1.691e-001
295.600   1.697e-001
295.700   1.703e-001
295.800   1.710e-001
295.900   1.716e-001
296.000   1.722e-001
296.100   1.729e-001
296.200   1.735e-001
296.300   1.741e-001
296.400   1.748e-001
296.500   1.754e-001
296.600   1.761e-001
296.700   1.767e-001
296.800   1.773e-001
296.900   1.780e-001
297.000   1.786e-001
297.100   1.793e-001
297.200   1.799e-001
297.300   1.806e-001
297.400   1.812e-001
297.500   1.819e-001
297.600   1.826e-001
297.700   1.832e-001
297.800   1.839e-001
297.900   1.845e-001
298.000   1.852e-001
298.100   1.859e-001
298.200   1.865e-001
298.300   1.872e-001
298.400   1.879e-001
298.500   1.886e-001
298.600   1.892e-001
298.700   1.899e-001
298.800   1.906e-001
298.900   1.913e-001
299.000   1.920e-001
299.100   1.926e-001
299.200   1.933e-001
299.300   1.940e-001
299.400   1.947e-001
299.500   1.954e-001
299.600   1.961e-001
299.700   1.968e-001
299.800   1.975e-001
299.900   1.982e-001
300.000   1.989e-001
300.100   1.996e-001
300.200   2.003e-001
300.300   2.010e-001
300.400   2.017e-001
300.500   2.024e-001
300.600   2.031e-001
300.700   2.038e-001
300.800   2.046e-001
300.900   2.053e-001
301.000   2.060e-001
301.100   2.067e-001
301.200   2.074e-001
301.300   2.082e-001
301.400   2.089e-001
301.500   2.096e-001
301.600   2.103e-001
301.700   2.111e-001
301.800   2.118e-001
301.900   2.125e-001
302.000   2.133e-001
302.100   2.140e-001
302.200   2.148e-001
302.300   2.155e-001
302.400   2.162e-001
302.500   2.170e-001
302.600   2.177e-001
302.700   2.185e-001
302.800   2.193e-001
302.900   2.200e-001
303.000   2.208e-001
303.100   2.215e-001
303.200   2.223e-001
303.300   2.230e-001
303.400   2.238e-001
303.500   2.246e-001
303.600   2.254e-001
303.700   2.261e-001
303.800   2.269e-001
303.900   2.277e-001
304.000   2.285e-001
304.100   2.292e-001
304.200   2.300e-001
304.300   2.308e-001
304.400   2.316e-001
304.500   2.324e-001
304.600   2.332e-001
304.700   2.340e-001
304.800   2.348e-001
304.900   2.356e-001
305.000   2.363e-001
305.100   2.372e-001
305.200   2.380e-001
305.300   2.388e-001
305.400   2.396e-001
305.500   2.404e-001
305.600   2.412e-001
305.700   2.420e-001
305.800   2.428e-001
305.900   2.436e-001
306.000   2.445e-001
306.100   2.453e-001
306.200   2.461e-001
306.300   2.469e-001
306.400   2.478e-001
306.500   2.486e-001
306.600   2.494e-001
306.700   2.503e-001
306.800   2.511e-001
306.900   2.519e-001
307.000   2.528e-001
307.100   2.536e-001
307.200   2.545e-001
307.300   2.553e-001
307.400   2.562e-001
307.500   2.570e-001
307.600   2.579e-001
307.700   2.587e-001
307.800   2.596e-001
307.900   2.605e-001
308.000   2.613e-001
308.100   2.622e-001
308.200   2.631e-001
308.300   2.639e-001
308.400   2.648e-001
308.500   2.657e-001
308.600   2.666e-001
308.700   2.674e-001
308.800   2.683e-001
308.900   2.692e-001
309.000   2.701e-001
309.100   2.710e-001
309.200   2.719e-001
309.300   2.728e-001
309.400   2.737e-001
309.500   2.746e-001
309.600   2.755e-001
309.700   2.764e-001
309.800   2.773e-001
309.900   2.782e-001
310.000   2.791e-001
310.100   2.800e-001
310.200   2.809e-001
310.300   2.819e-001
310.400   2.828e-001
310.500   2.837e-001
310.600   2.846e-001
310.700   2.856e-001
310.800   2.865e-001
310.900   2.874e-001
311.000   2.884e-001
311.100   2.893e-001
311.200   2.903e-001
311.300   2.912e-001
311.400   2.922e-001
311.500   2.931e-001
311.600   2.941e-001
311.700   2.950e-001
311.800   2.960e-001
311.900   2.969e-001
312.000   2.979e-001
312.100   2.989e-001
312.200   2.998e-001
312.300   3.008e-001
312.400   3.018e-001
312.500   3.027e-001
312.600   3.037e-001
312.700   3.047e-001
312.800   3.057e-001
312.900   3.066e-001
313.000   3.076e-001
313.100   3.086e-001
313.200   3.096e-001
313.300   3.106e-001
313.400   3.116e-001
313.500   3.126e-001
313.600   3.136e-001
313.700   3.146e-001
313.800   3.156e-001
313.900   3.166e-001
314.000   3.176e-001
314.100   3.186e-001
314.200   3.196e-001
314.300   3.206e-001
314.400   3.216e-001
314.500   3.226e-001
314.600   3.237e-001
314.700   3.247e-001
314.800   3.257e-001
314.900   3.267e-001
315.000   3.278e-001
315.100   3.288e-001
315.200   3.298e-001
315.300   3.309e-001
315.400   3.319e-001
315.500   3.329e-001
315.600   3.340e-001
315.700   3.350e-001
315.800   3.361e-001
315.900   3.371e-001
316.000   3.382e-001
316.100   3.392e-001
316.200   3.403e-001
316.300   3.413e-001
316.400   3.424e-001
316.500   3.435e-001
316.600   3.445e-001
316.700   3.456e-001
316.800   3.467e-001
316.900   3.477e-001
317.000   3.488e-001
317.100   3.499e-001
317.200   3.510e-001
317.300   3.520e-001
317.400   3.531e-001
317.500   3.542e-001
317.600   3.553e-001
317.700   3.564e-001
317.800   3.575e-001
317.900   3.586e-001
318.000   3.597e-001
318.100   3.608e-001
318.200   3.619e-001
318.300   3.630e-001
318.400   3.641e-001
318.500   3.652e-001
318.600   3.663e-001
318.700   3.674e-001
318.800   3.685e-001
318.900   3.696e-001
319.000   3.708e-001
319.100   3.719e-001
319.200   3.730e-001
319.300   3.741e-001
319.400   3.753e-001
319.500   3.764e-001
319.600   3.775e-001
319.700   3.787e-001
319.800   3.798e-001
319.900   3.810e-001
320.000   3.821e-001
320.100   3.832e-001
320.200   3.844e-001
320.300   3.855e-001
320.400   3.867e-001
320.500   3.878e-001
320.600   3.890e-001
320.700   3.901e-001
320.800   3.913e-001
320.900   3.924e-001
321.000   3.936e-001
321.100   3.948e-001
321.200   3.959e-001
321.300   3.971e-001
321.400   3.983e-001
321.500   3.995e-001
321.600   4.006e-001
321.700   4.018e-001
321.800   4.030e-001
321.900   4.042e-001
322.000   4.054e-001
322.100   4.066e-001
322.200   4.077e-001
322.300   4.089e-001
322.400   4.101e-001
322.500   4.113e-001
322.600   4.125e-001
322.700   4.138e-001
322.800   4.150e-001
322.900   4.162e-001
323.000   4.174e-001
323.100   4.186e-001
323.200   4.198e-001
323.300   4.210e-001
323.400   4.223e-001
323.500   4.235e-001
323.600   4.247e-001
323.700   4.260e-001
323.800   4.272e-001
323.900   4.284e-001
324.000   4.297e-001
324.100   4.309e-001
324.200   4.322e-001
324.300   4.334e-001
324.400   4.347e-001
324.500   4.359e-001
324.600   4.372e-001
324.700   4.384e-001
324.800   4.397e-001
324.900   4.410e-001
325.000   4.422e-001
325.100   4.435e-001
325.200   4.448e-001
325.300   4.461e-001
325.400   4.473e-001
325.500   4.486e-001
325.600   4.499e-001
325.700   4.512e-001
325.800   4.525e-001
325.900   4.538e-001
326.000   4.551e-001
326.100   4.564e-001
326.200   4.577e-001
326.300   4.590e-001
326.400   4.603e-001
326.500   4.616e-001
326.600   4.629e-001
326.700   4.643e-001
326.800   4.656e-001
326.900   4.669e-001
327.000   4.682e-001
327.100   4.696e-001
327.200   4.709e-001
327.300   4.722e-001
327.400   4.736e-001
327.500   4.749e-001
327.600   4.762e-001
327.700   4.776e-001
327.800   4.789e-001
327.900   4.803e-001
328.000   4.817e-001
328.100   4.830e-001
328.200   4.844e-001
328.300   4.857e-001
328.400   4.871e-001
328.500   4.885e-001
328.600   4.899e-001
328.700   4.912e-001
328.800   4.926e-001
328.900   4.940e-001
329.000   4.954e-001
329.100   4.968e-001
329.200   4.982e-001
329.300   4.996e-001
329.400   5.009e-001
329.500   5.024e-001
329.600   5.038e-001
329.700   5.052e-001
329.800   5.066e-001
329.900   5.080e-001
330.000   5.094e-001
330.100   5.108e-001
330.200   5.122e-001
330.300   5.137e-001
330.400   5.151e-001
330.500   5.165e-001
330.600   5.180e-001
330.700   5.194e-001
330.800   5.209e-001
330.900   5.223e-001
331.000   5.238e-001
331.100   5.252e-001
331.200   5.267e-001
331.300   5.281e-001
331.400   5.296e-001
331.500   5.310e-001
331.600   5.325e-001
331.700   5.340e-001
331.800   5.355e-001
331.900   5.369e-001
332.000   5.384e-001
332.100   5.399e-001
332.200   5.414e-001
332.300   5.429e-001
332.400   5.444e-001
332.500   5.459e-001
332.600   5.474e-001
332.700   5.489e-001
332.800   5.504e-001
332.900   5.519e-001
333.000   5.534e-001
333.100   5.549e-001
333.200   5.564e-001
333.300   5.579e-001
333.400   5.594e-001
333.500   5.610e-001
333.600   5.625e-001
333.700   5.640e-001
333.800   5.656e-001
333.900   5.671e-001
334.000   5.686e-001
334.100   5.702e-001
334.200   5.717e-001
334.300   5.733e-001
334.400   5.748e-001
334.500   5.764e-001
334.600   5.779e-001
334.700   5.795e-001
334.800   5.811e-001
334.900   5.826e-001
335.000   5.842e-001
335.100   5.858e-001
335.200   5.874e-001
335.300   5.889e-001
335.400   5.905e-001
335.500   5.921e-001
335.600   5.937e-001
335.700   5.953e-001
335.800   5.969e-001
335.900   5.985e-001
336.000   6.001e-001
336.100   6.017e-001
336.200   6.033e-001
336.300   6.049e-001
336.400   6.065e-001
336.500   6.082e-001
336.600   6.098e-001
336.700   6.114e-001
336.800   6.130e-001
336.900   6.147e-001
337.000   6.163e-001
337.100   6.179e-001
337.200   6.196e-001
337.300   6.212e-001
337.400   6.228e-001
337.500   6.245e-001
337.600   6.261e-001
337.700   6.278e-001
337.800   6.295e-001
337.900   6.311e-001
338.000   6.328e-001
338.100   6.344e-001
338.200   6.361e-001
338.300   6.378e-001
338.400   6.395e-001
338.500   6.411e-001
338.600   6.428e-001
338.700   6.445e-001
338.800   6.462e-001
338.900   6.479e-001
339.000   6.496e-001
339.100   6.513e-001
339.200   6.530e-001
339.300   6.547e-001
339.400   6.564e-001
339.500   6.581e-001
339.600   6.598e-001
339.700   6.615e-001
339.800   6.633e-001
339.900   6.650e-001
340.000   6.667e-001
340.100   6.684e-001
340.200   6.702e-001
340.300   6.719e-001
340.400   6.737e-001
340.500   6.754e-001
340.600   6.772e-001
340.700   6.789e-001
340.800   6.807e-001
340.900   6.824e-001
341.000   6.842e-001
341.100   6.860e-001
341.200   6.877e-001
341.300   6.895e-001
341.400   6.913e-001
341.500   6.931e-001
341.600   6.948e-001
341.700   6.966e-001
341.800   6.984e-001
341.900   7.002e-001
342.000   7.020e-001
342.100   7.038e-001
342.200   7.056e-001
342.300   7.074e-001
342.400   7.092e-001
342.500   7.110e-001
342.600   7.128e-001
342.700   7.146e-001
342.800   7.164e-001
342.900   7.183e-001
343.000   7.201e-001
343.100   7.219e-001
343.200   7.237e-001
343.300   7.256e-001
343.400   7.274e-001
343.500   7.292e-001
343.600   7.311e-001
343.700   7.329e-001
343.800   7.348e-001
343.900   7.366e-001
344.000   7.385e-001
344.100   7.403e-001
344.200   7.422e-001
344.300   7.440e-001
344.400   7.459e-001
344.500   7.478e-001
344.600   7.496e-001
344.700   7.515e-001
344.800   7.534e-001
344.900   7.553e-001
345.000   7.571e-001
345.100   7.590e-001
345.200   7.609e-001
345.300   7.628e-001
345.400   7.647e-001
345.500   7.666e-001
345.600   7.685e-001
345.700   7.704e-001
345.800   7.723e-001
345.900   7.742e-001
346.000   7.761e-001
346.100   7.780e-001
346.200   7.799e-001
346.300   7.818e-001
346.400   7.838e-001
346.500   7.857e-001
346.600   7.876e-001
346.700   7.895e-001
346.800   7.915e-001
346.900   7.934e-001
347.000   7.953e-001
347.100   7.973e-001
347.200   7.992e-001
347.300   8.012e-001
347.400   8.031e-001
347.500   8.051e-001
347.600   8.070e-001
347.700   8.090e-001
347.800   8.109e-001
347.900   8.129e-001
348.000   8.149e-001
348.100   8.168e-001
348.200   8.188e-001
348.300   8.208e-001
348.400   8.228e-001
348.500   8.247e-001
348.600   8.267e-001
348.700   8.287e-001
348.800   8.307e-001
348.900   8.327e-001
349.000   8.347e-001
349.100   8.367e-001
349.200   8.387e-001
349.300   8.407e-001
349.400   8.427e-001
349.500   8.447e-001
349.600   8.467e-001
349.700   8.487e-001
349.800   8.508e-001
349.900   8.528e-001
350.000   8.548e-001
350.100   8.568e-001
350.200   8.588e-001
350.300   8.608e-001
350.400   8.629e-001
350.500   8.649e-001
350.600   8.669e-001
350.700   8.689e-001
350.800   8.710e-001
350.900   8.730e-001
351.000   8.750e-001
351.100   8.771e-001
351.200   8.791e-001
351.300   8.812e-001
351.400   8.832e-001
351.500   8.853e-001
351.600   8.874e-001
351.700   8.894e-001
351.800   8.915e-001
351.900   8.935e-001
352.000   8.956e-001
352.100   8.977e-001
352.200   8.998e-001
352.300   9.019e-001
352.400   9.039e-001
352.500   9.060e-001
352.600   9.081e-001
352.700   9.102e-001
352.800   9.123e-001
352.900   9.144e-001
353.000   9.165e-001
353.100   9.186e-001
353.200   9.207e-001
353.300   9.229e-001
353.400   9.250e-001
353.500   9.271e-001
353.600   9.292e-001
353.700   9.314e-001
353.800   9.335e-001
353.900   9.356e-001
354.000   9.378e-001
354.100   9.399e-001
354.200   9.421e-001
354.300   9.442e-001
354.400   9.464e-001
354.500   9.485e-001
354.600   9.507e-001
354.700   9.529e-001
354.800   9.550e-001
354.900   9.572e-001
355.000   9.594e-001
355.100   9.616e-001
355.200   9.638e-001
355.300   9.659e-001
355.400   9.681e-001
355.500   9.703e-001
355.600   9.725e-001
355.700   9.747e-001
355.800   9.769e-001
355.900   9.791e-001
356.000   9.814e-001
356.100   9.836e-001
356.200   9.858e-001
356.300   9.880e-001
356.400   9.902e-001
356.500   9.925e-001
356.600   9.947e-001
356.700   9.970e-001
356.800   9.992e-001
356.900   1.001e000
357.000   1.004e000
357.100   1.006e000
357.200   1.008e000
357.300   1.010e000
357.400   1.013e000
357.500   1.015e000
357.600   1.017e000
357.700   1.020e000
357.800   1.022e000
357.900   1.024e000
358.000   1.026e000
358.100   1.029e000
358.200   1.031e000
358.300   1.033e000
358.400   1.036e000
358.500   1.038e000
358.600   1.040e000
358.700   1.043e000
358.800   1.045e000
358.900   1.047e000
359.000   1.050e000
359.100   1.052e000
359.200   1.054e000
359.300   1.057e000
359.400   1.059e000
359.500   1.061e000
359.600   1.064e000
359.700   1.066e000
359.800   1.068e000
359.900   1.071e000
360.000   1.073e000
360.100   1.075e000
360.200   1.078e000
360.300   1.080e000
360.400   1.083e000
360.500   1.085e000
360.600   1.087e000
360.700   1.090e000
360.800   1.092e000
360.900   1.095e000
361.000   1.097e000
361.100   1.099e000
361.200   1.102e000
361.300   1.104e000
361.400   1.107e000
361.500   1.109e000
361.600   1.112e000
361.700   1.114e000
361.800   1.117e000
361.900   1.119e000
362.000   1.121e000
362.100   1.124e000
362.200   1.126e000
362.300   1.129e000
362.400   1.131e000
362.500   1.134e000
362.600   1.136e000
362.700   1.139e000
362.800   1.141e000
362.900   1.144e000
363.000   1.146e000
363.100   1.149e000
363.200   1.151e000
363.300   1.154e000
363.400   1.156e000
363.500   1.159e000
363.600   1.161e000
363.700   1.164e000
363.800   1.166e000
363.900   1.169e000
364.000   1.171e000
364.100   1.174e000
364.200   1.176e000
364.300   1.179e000
364.400   1.181e000
364.500   1.184e000
364.600   1.186e000
364.700   1.189e000
364.800   1.192e000
364.900   1.194e000
365.000   1.197e000
365.100   1.199e000
365.200   1.202e000
365.300   1.204e000
365.400   1.207e000
365.500   1.210e000
365.600   1.212e000
365.700   1.215e000
365.800   1.217e000
365.900   1.220e000
366.000   1.222e000
366.100   1.225e000
366.200   1.228e000
366.300   1.230e000
366.400   1.233e000
366.500   1.236e000
366.600   1.238e000
366.700   1.241e000
366.800   1.243e000
366.900   1.246e000
367.000   1.249e000
367.100   1.251e000
367.200   1.254e000
367.300   1.257e000
367.400   1.259e000
367.500   1.262e000
367.600   1.264e000
367.700   1.267e000
367.800   1.270e000
367.900   1.272e000
368.000   1.275e000
368.100   1.278e000
368.200   1.280e000
368.300   1.283e000
368.400   1.286e000
368.500   1.288e000
368.600   1.291e000
368.700   1.294e000
368.800   1.296e000
368.900   1.299e000
369.000   1.302e000
369.100   1.305e000
369.200   1.307e000
369.300   1.310e000
369.400   1.313e000
369.500   1.315e000
369.600   1.318e000
369.700   1.321e000
369.800   1.324e000
369.900   1.326e000
370.000   1.329e000
370.100   1.332e000
370.200   1.334e000
370.300   1.337e000
370.400   1.340e000
370.500   1.343e000
370.600   1.345e000
370.700   1.348e000
370.800   1.351e000
370.900   1.354e000
371.000   1.356e000
371.100   1.359e000
371.200   1.362e000
371.300   1.365e000
371.400   1.367e000
371.500   1.370e000
371.600   1.373e000
371.700   1.376e000
371.800   1.378e000
371.900   1.381e000
372.000   1.384e000
372.100   1.387e000
372.200   1.390e000
372.300   1.392e000
372.400   1.395e000
372.500   1.398e000
372.600   1.401e000
372.700   1.404e000
372.800   1.406e000
372.900   1.409e000
373.000   1.412e000
373.100   1.415e000
373.200   1.418e000
373.300   1.421e000
373.400   1.423e000
373.500   1.426e000
373.600   1.429e000
373.700   1.432e000
373.800   1.435e000
373.900   1.438e000
374.000   1.440e000
374.100   1.443e000
374.200   1.446e000
374.300   1.449e000
374.400   1.452e000
374.500   1.455e000
374.600   1.458e000
374.700   1.461e000
374.800   1.463e000
374.900   1.466e000
375.000   1.469e000
375.100   1.472e000
375.200   1.475e000
375.300   1.478e000
375.400   1.481e000
375.500   1.484e000
375.600   1.487e000
375.700   1.490e000
375.800   1.493e000
375.900   1.496e000
376.000   1.498e000
376.100   1.501e000
376.200   1.504e000
376.300   1.507e000
376.400   1.510e000
376.500   1.513e000
376.600   1.516e000
376.700   1.519e000
376.800   1.522e000
376.900   1.525e000
377.000   1.528e000
377.100   1.531e000
377.200   1.534e000
377.300   1.537e000
377.400   1.540e000
377.500   1.543e000
377.600   1.546e000
377.700   1.549e000
377.800   1.552e000
377.900   1.555e000
378.000   1.558e000
378.100   1.561e000
378.200   1.564e000
378.300   1.567e000
378.400   1.570e000
378.500   1.573e000
378.600   1.576e000
378.700   1.579e000
378.800   1.582e000
378.900   1.585e000
379.000   1.588e000
379.100   1.591e000
379.200   1.594e000
379.300   1.597e000
379.400   1.601e000
379.500   1.604e000
379.600   1.607e000
379.700   1.610e000
379.800   1.613e000
379.900   1.616e000
380.000   1.619e000
380.100   1.622e000
380.200   1.625e000
380.300   1.628e000
380.400   1.631e000
380.500   1.635e000
380.600   1.638e000
380.700   1.641e000
380.800   1.644e000
380.900   1.647e000
381.000   1.650e000
381.100   1.653e000
381.200   1.657e000
381.300   1.660e000
381.400   1.663e000
381.500   1.666e000
381.600   1.669e000
381.700   1.672e000
381.800   1.676e000
381.900   1.679e000
382.000   1.682e000
382.100   1.685e000
382.200   1.688e000
382.300   1.691e000
382.400   1.695e000
382.500   1.698e000
382.600   1.701e000
382.700   1.704e000
382.800   1.707e000
382.900   1.711e000
383.000   1.714e000
383.100   1.717e000
383.200   1.720e000
383.300   1.724e000
383.400   1.727e000
383.500   1.730e000
383.600   1.733e000
383.700   1.736e000
383.800   1.740e000
383.900   1.743e000
384.000   1.746e000
384.100   1.749e000
384.200   1.753e000
384.300   1.756e000
384.400   1.759e000
384.500   1.762e000
384.600   1.766e000
384.700   1.769e000
384.800   1.772e000
384.900   1.776e000
385.000   1.779e000
385.100   1.782e000
385.200   1.785e000
385.300   1.789e000
385.400   1.792e000
385.500   1.795e000
385.600   1.799e000
385.700   1.802e000
385.800   1.805e000
385.900   1.808e000
386.000   1.812e000
386.100   1.815e000
386.200   1.818e000
386.300   1.822e000
386.400   1.825e000
386.500   1.828e000
386.600   1.832e000
386.700   1.835e000
386.800   1.838e000
386.900   1.842e000
387.000   1.845e000
387.100   1.848e000
387.200   1.852e000
387.300   1.855e000
387.400   1.859e000
387.500   1.862e000
387.600   1.865e000
387.700   1.869e000
387.800   1.872e000
387.900   1.875e000
388.000   1.879e000
388.100   1.882e000
388.200   1.886e000
388.300   1.889e000
388.400   1.892e000
388.500   1.896e000
388.600   1.899e000
388.700   1.902e000
388.800   1.906e000
388.900   1.909e000
389.000   1.913e000
389.100   1.916e000
389.200   1.920e000
389.300   1.923e000
389.400   1.926e000
389.500   1.930e000
389.600   1.933e000
389.700   1.937e000
389.800   1.940e000
389.900   1.944e000
390.000   1.947e000
390.100   1.950e000
390.200   1.954e000
390.300   1.957e000
390.400   1.961e000
390.500   1.964e000
390.600   1.968e000
390.700   1.971e000
390.800   1.975e000
390.900   1.978e000
391.000   1.981e000
391.100   1.985e000
391.200   1.988e000
391.300   1.992e000
391.400   1.995e000
391.500   1.999e000
391.600   2.002e000
391.700   2.006e000
391.800   2.009e000
391.900   2.013e000
392.000   2.016e000
392.100   2.020e000
392.200   2.023e000
392.300   2.027e000
392.400   2.030e000
392.500   2.034e000
392.600   2.037e000
392.700   2.041e000
392.800   2.044e000
392.900   2.048e000
393.000   2.051e000
393.100   2.055e000
393.200   2.058e000
393.300   2.062e000
393.400   2.066e000
393.500   2.069e000
393.600   2.073e000
393.700   2.076e000
393.800   2.080e000
393.900   2.083e000
394.000   2.087e000
394.100   2.091e000
394.200   2.094e000
394.300   2.098e000
394.400   2.101e000
394.500   2.105e000
394.600   2.108e000
394.700   2.112e000
394.800   2.116e000
394.900   2.119e000
395.000   2.123e000
395.100   2.126e000
395.200   2.130e000
395.300   2.134e000
395.400   2.137e000
395.500   2.141e000
395.600   2.145e000
395.700   2.148e000
395.800   2.152e000
395.900   2.155e000
396.000   2.159e000
396.100   2.163e000
396.200   2.166e000
396.300   2.170e000
396.400   2.174e000
396.500   2.177e000
396.600   2.181e000
396.700   2.185e000
396.800   2.188e000
396.900   2.192e000
397.000   2.196e000
397.100   2.199e000
397.200   2.203e000
397.300   2.207e000
397.400   2.211e000
397.500   2.214e000
397.600   2.218e000
397.700   2.222e000
397.800   2.225e000
397.900   2.229e000
398.000   2.233e000
398.100   2.236e000
398.200   2.240e000
398.300   2.244e000
398.400   2.248e000
398.500   2.251e000
398.600   2.255e000
398.700   2.259e000
398.800   2.263e000
398.900   2.266e000
399.000   2.270e000
399.100   2.274e000
399.200   2.278e000
399.300   2.281e000
399.400   2.285e000
399.500   2.289e000
399.600   2.293e000
399.700   2.297e000
399.800   2.300e000
399.900   2.304e000
400.000   2.308e000
400.100   2.312e000
400.200   2.316e000
400.300   2.319e000
400.400   2.323e000
400.500   2.327e000
400.600   2.331e000
400.700   2.335e000
400.800   2.339e000
400.900   2.342e000
401.000   2.346e000
401.100   2.350e000
401.200   2.354e000
401.300   2.358e000
401.400   2.362e000
401.500   2.366e000
401.600   2.369e000
401.700   2.373e000
401.800   2.377e000
401.900   2.381e000
402.000   2.385e000
402.100   2.389e000
402.200   2.393e000
402.300   2.397e000
402.400   2.400e000
402.500   2.404e000
402.600   2.408e000
402.700   2.412e000
402.800   2.416e000
402.900   2.420e000
403.000   2.424e000
403.100   2.428e000
403.200   2.432e000
403.300   2.436e000
403.400   2.440e000
403.500   2.444e000
403.600   2.448e000
403.700   2.451e000
403.800   2.455e000
403.900   2.459e000
404.000   2.463e000
404.100   2.467e000
404.200   2.471e000
404.300   2.475e000
404.400   2.479e000
404.500   2.483e000
404.600   2.487e000
404.700   2.491e000
404.800   2.495e000
404.900   2.499e000
405.000   2.503e000
405.100   2.507e000
405.200   2.511e000
405.300   2.515e000
405.400   2.519e000
405.500   2.523e000
405.600   2.527e000
405.700   2.531e000
405.800   2.535e000
405.900   2.539e000
406.000   2.543e000
406.100   2.547e000
406.200   2.551e000
406.300   2.555e000
406.400   2.559e000
406.500   2.564e000
406.600   2.568e000
406.700   2.572e000
406.800   2.576e000
406.900   2.580e000
407.000   2.584e000
407.100   2.588e000
407.200   2.592e000
407.300   2.596e000
407.400   2.600e000
407.500   2.604e000
407.600   2.608e000
407.700   2.612e000
407.800   2.617e000
407.900   2.621e000
408.000   2.625e000
408.100   2.629e000
408.200   2.633e000
408.300   2.637e000
408.400   2.641e000
408.500   2.645e000
408.600   2.649e000
408.700   2.654e000
408.800   2.658e000
408.900   2.662e000
409.000   2.666e000
409.100   2.670e000
409.200   2.674e000
409.300   2.678e000
409.400   2.683e000
409.500   2.687e000
409.600   2.691e000
409.700   2.695e000
409.800   2.699e000
409.900   2.704e000
410.000   2.708e000
410.100   2.712e000
410.200   2.716e000
410.300   2.720e000
410.400   2.724e000
410.500   2.729e000
410.600   2.733e000
410.700   2.737e000
410.800   2.741e000
410.900   2.745e000
411.000   2.750e000
411.100   2.754e000
411.200   2.758e000
411.300   2.762e000
411.400   2.767e000
411.500   2.771e000
411.600   2.775e000
411.700   2.779e000
411.800   2.784e000
411.900   2.788e000
412.000   2.792e000
412.100   2.796e000
412.200   2.801e000
412.300   2.805e000
412.400   2.809e000
412.500   2.813e000
412.600   2.818e000
412.700   2.822e000
412.800   2.826e000
412.900   2.831e000
413.000   2.835e000
413.100   2.839e000
413.200   2.843e000
413.300   2.848e000
413.400   2.852e000
413.500   2.856e000
413.600   2.861e000
413.700   2.865e000
413.800   2.869e000
413.900   2.874e000
414.000   2.878e000
414.100   2.882e000
414.200   2.887e000
414.300   2.891e000
414.400   2.895e000
414.500   2.900e000
414.600   2.904e000
414.700   2.908e000
414.800   2.913e000
414.900   2.917e000
415.000   2.921e000
415.100   2.926e000
415.200   2.930e000
415.300   2.934e000
415.400   2.939e000
415.500   2.943e000
415.600   2.948e000
415.700   2.952e000
415.800   2.956e000
415.900   2.961e000
416.000   2.965e000
416.100   2.970e000
416.200   2.974e000
416.300   2.978e000
416.400   2.983e000
416.500   2.987e000
416.600   2.992e000
416.700   2.996e000
416.800   3.000e000
416.900   3.005e000
417.000   3.009e000
417.100   3.014e000
417.200   3.018e000
417.300   3.023e000
417.400   3.027e000
417.500   3.031e000
417.600   3.036e000
417.700   3.040e000
417.800   3.045e000
417.900   3.049e000
418.000   3.054e000
418.100   3.058e000
418.200   3.063e000
418.300   3.067e000
418.400   3.072e000
418.500   3.076e000
418.600   3.081e000
418.700   3.085e000
418.800   3.090e000
418.900   3.094e000
419.000   3.099e000
419.100   3.103e000
419.200   3.108e000
419.300   3.112e000
419.400   3.117e000
419.500   3.121e000
419.600   3.126e000
419.700   3.130e000
419.800   3.135e000
419.900   3.139e000
420.000   3.144e000
420.100   3.148e000
420.200   3.153e000
420.300   3.157e000
420.400   3.162e000
420.500   3.167e000
420.600   3.171e000
420.700   3.176e000
420.800   3.180e000
420.900   3.185e000
421.000   3.189e000
421.100   3.194e000
421.200   3.198e000
421.300   3.203e000
421.400   3.208e000
421.500   3.212e000
421.600   3.217e000
421.700   3.221e000
421.800   3.226e000
421.900   3.231e000
422.000   3.235e000
422.100   3.240e000
422.200   3.244e000
422.300   3.249e000
422.400   3.254e000
422.500   3.258e000
422.600   3.263e000
422.700   3.267e000
422.800   3.272e000
422.900   3.277e000
423.000   3.281e000
423.100   3.286e000
423.200   3.291e000
423.300   3.295e000
423.400   3.300e000
423.500   3.305e000
423.600   3.309e000
423.700   3.314e000
423.800   3.319e000
423.900   3.323e000
424.000   3.328e000
424.100   3.333e000
424.200   3.337e000
424.300   3.342e000
424.400   3.347e000
424.500   3.351e000
424.600   3.356e000
424.700   3.361e000
424.800   3.365e000
424.900   3.370e000
425.000   3.375e000
425.100   3.380e000
425.200   3.384e000
425.300   3.389e000
425.400   3.394e000
425.500   3.398e000
425.600   3.403e000
425.700   3.408e000
425.800   3.413e000
425.900   3.417e000
426.000   3.422e000
426.100   3.427e000
426.200   3.431e000
426.300   3.436e000
426.400   3.441e000
426.500   3.446e000
426.600   3.450e000
426.700   3.455e000
426.800   3.460e000
426.900   3.465e000
427.000   3.470e000
427.100   3.474e000
427.200   3.479e000
427.300   3.484e000
427.400   3.489e000
427.500   3.493e000
427.600   3.498e000
427.700   3.503e000
427.800   3.508e000
427.900   3.513e000
428.000   3.517e000
428.100   3.522e000
428.200   3.527e000
428.300   3.532e000
428.400   3.537e000
428.500   3.541e000
428.600   3.546e000
428.700   3.551e000
428.800   3.556e000
428.900   3.561e000
429.000   3.566e000
429.100   3.570e000
429.200   3.575e000
429.300   3.580e000
429.400   3.585e000
429.500   3.590e000
429.600   3.595e000
429.700   3.599e000
429.800   3.604e000
429.900   3.609e000
430.000   3.614e000
430.100   3.619e000
430.200   3.624e000
430.300   3.629e000
430.400   3.634e000
430.500   3.638e000
430.600   3.643e000
430.700   3.648e000
430.800   3.653e000
430.900   3.658e000
431.000   3.663e000
431.100   3.668e000
431.200   3.673e000
431.300   3.678e000
431.400   3.683e000
431.500   3.687e000
431.600   3.692e000
431.700   3.697e000
431.800   3.702e000
431.900   3.707e000
432.000   3.712e000
432.100   3.717e000
432.200   3.722e000
432.300   3.727e000
432.400   3.732e000
432.500   3.737e000
432.600   3.742e000
432.700   3.747e000
432.800   3.752e000
432.900   3.757e000
433.000   3.762e000
433.100   3.766e000
433.200   3.771e000
433.300   3.776e000
433.400   3.781e000
433.500   3.786e000
433.600   3.791e000
433.700   3.796e000
433.800   3.801e000
433.900   3.806e000
434.000   3.811e000
434.100   3.816e000
434.200   3.821e000
434.300   3.826e000
434.400   3.831e000
434.500   3.836e000
434.600   3.841e000
434.700   3.846e000
434.800   3.851e000
434.900   3.856e000
435.000   3.861e000
435.100   3.866e000
435.200   3.871e000
435.300   3.876e000
435.400   3.881e000
435.500   3.887e000
435.600   3.892e000
435.700   3.897e000
435.800   3.902e000
435.900   3.907e000
436.000   3.912e000
436.100   3.917e000
436.200   3.922e000
436.300   3.927e000
436.400   3.932e000
436.500   3.937e000
436.600   3.942e000
436.700   3.947e000
436.800   3.952e000
436.900   3.957e000
437.000   3.962e000
437.100   3.967e000
437.200   3.973e000
437.300   3.978e000
437.400   3.983e000
437.500   3.988e000
437.600   3.993e000
437.700   3.998e000
437.800   4.003e000
437.900   4.008e000
438.000   4.013e000
438.100   4.018e000
438.200   4.024e000
438.300   4.029e000
438.400   4.034e000
438.500   4.039e000
438.600   4.044e000
438.700   4.049e000
438.800   4.054e000
438.900   4.060e000
439.000   4.065e000
439.100   4.070e000
439.200   4.075e000
439.300   4.080e000
439.400   4.085e000
439.500   4.090e000
439.600   4.096e000
439.700   4.101e000
439.800   4.106e000
439.900   4.111e000
440.000   4.116e000
440.100   4.121e000
440.200   4.127e000
440.300   4.132e000
440.400   4.137e000
440.500   4.142e000
440.600   4.147e000
440.700   4.152e000
440.800   4.158e000
440.900   4.163e000
441.000   4.168e000
441.100   4.173e000
441.200   4.178e000
441.300   4.184e000
441.400   4.189e000
441.500   4.194e000
441.600   4.199e000
441.700   4.204e000
441.800   4.210e000
441.900   4.215e000
442.000   4.220e000
442.100   4.225e000
442.200   4.231e000
442.300   4.236e000
442.400   4.241e000
442.500   4.246e000
442.600   4.252e000
442.700   4.257e000
442.800   4.262e000
442.900   4.267e000
443.000   4.273e000
443.100   4.278e000
443.200   4.283e000
443.300   4.288e000
443.400   4.294e000
443.500   4.299e000
443.600   4.304e000
443.700   4.309e000
443.800   4.315e000
443.900   4.320e000
444.000   4.325e000
444.100   4.331e000
444.200   4.336e000
444.300   4.341e000
444.400   4.346e000
444.500   4.352e000
444.600   4.357e000
444.700   4.362e000
444.800   4.368e000
444.900   4.373e000
445.000   4.378e000
445.100   4.384e000
445.200   4.389e000
445.300   4.394e000
445.400   4.400e000
445.500   4.405e000
445.600   4.410e000
445.700   4.416e000
445.800   4.421e000
445.900   4.426e000
446.000   4.432e000
446.100   4.437e000
446.200   4.442e000
446.300   4.448e000
446.400   4.453e000
446.500   4.458e000
446.600   4.464e000
446.700   4.469e000
446.800   4.474e000
446.900   4.480e000
447.000   4.485e000
447.100   4.491e000
447.200   4.496e000
447.300   4.501e000
447.400   4.507e000
447.500   4.512e000
447.600   4.518e000
447.700   4.523e000
447.800   4.528e000
447.900   4.534e000
448.000   4.539e000
448.100   4.545e000
448.200   4.550e000
448.300   4.555e000
448.400   4.561e000
448.500   4.566e000
448.600   4.572e000
448.700   4.577e000
448.800   4.583e000
448.900   4.588e000
449.000   4.593e000
449.100   4.599e000
449.200   4.604e000
449.300   4.610e000
449.400   4.615e000
449.500   4.621e000
449.600   4.626e000
449.700   4.632e000
449.800   4.637e000
449.900   4.643e000
450.000   4.648e000
450.100   4.653e000
450.200   4.659e000
450.300   4.664e000
450.400   4.670e000
450.500   4.675e000
450.600   4.681e000
450.700   4.686e000
450.800   4.692e000
450.900   4.697e000
451.000   4.703e000
451.100   4.708e000
451.200   4.714e000
451.300   4.719e000
451.400   4.725e000
451.500   4.730e000
451.600   4.736e000
451.700   4.742e000
451.800   4.747e000
451.900   4.753e000
452.000   4.758e000
452.100   4.764e000
452.200   4.769e000
452.300   4.775e000
452.400   4.780e000
452.500   4.786e000
452.600   4.791e000
452.700   4.797e000
452.800   4.803e000
452.900   4.808e000
453.000   4.814e000
453.100   4.819e000
453.200   4.825e000
453.300   4.830e000
453.400   4.836e000
453.500   4.841e000
453.600   4.847e000
453.700   4.853e000
453.800   4.858e000
453.900   4.864e000
454.000   4.869e000
454.100   4.875e000
454.200   4.881e000
454.300   4.886e000
454.400   4.892e000
454.500   4.897e000
454.600   4.903e000
454.700   4.909e000
454.800   4.914e000
454.900   4.920e000
455.000   4.925e000
455.100   4.931e000
455.200   4.937e000
455.300   4.942e000
455.400   4.948e000
455.500   4.954e000
455.600   4.959e000
455.700   4.965e000
455.800   4.970e000
455.900   4.976e000
456.000   4.982e000
456.100   4.987e000
456.200   4.993e000
456.300   4.999e000
456.400   5.004e000
456.500   5.010e000
456.600   5.016e000
456.700   5.021e000
456.800   5.027e000
456.900   5.033e000
457.000   5.038e000
457.100   5.044e000
457.200   5.050e000
457.300   5.055e000
457.400   5.061e000
457.500   5.067e000
457.600   5.072e000
457.700   5.078e000
457.800   5.084e000
457.900   5.089e000
458.000   5.095e000
458.100   5.101e000
458.200   5.107e000
458.300   5.112e000
458.400   5.118e000
458.500   5.124e000
458.600   5.129e000
458.700   5.135e000
458.800   5.141e000
458.900   5.147e000
459.000   5.152e000
459.100   5.158e000
459.200   5.164e000
459.300   5.169e000
459.400   5.175e000
459.500   5.181e000
459.600   5.187e000
459.700   5.192e000
459.800   5.198e000
459.900   5.204e000
460.000   5.210e000
460.100   5.215e000
460.200   5.221e000
460.300   5.227e000
460.400   5.233e000
460.500   5.238e000
460.600   5.244e000
460.700   5.250e000
460.800   5.256e000
460.900   5.261e000
461.000   5.267e000
461.100   5.273e000
461.200   5.279e000
461.300   5.284e000
461.400   5.290e000
461.500   5.296e000
461.600   5.302e000
461.700   5.308e000
461.800   5.313e000
461.900   5.319e000
462.000   5.325e000
462.100   5.331e000
462.200   5.336e000
462.300   5.342e000
462.400   5.348e000
462.500   5.354e000
462.600   5.360e000
462.700   5.366e000
462.800   5.371e000
462.900   5.377e000
463.000   5.383e000
463.100   5.389e000
463.200   5.395e000
463.300   5.400e000
463.400   5.406e000
463.500   5.412e000
463.600   5.418e000
463.700   5.424e000
463.800   5.430e000
463.900   5.435e000
464.000   5.441e000
464.100   5.447e000
464.200   5.453e000
464.300   5.459e000
464.400   5.465e000
464.500   5.470e000
464.600   5.476e000
464.700   5.482e000
464.800   5.488e000
464.900   5.494e000
465.000   5.500e000
465.100   5.506e000
465.200   5.511e000
465.300   5.517e000
465.400   5.523e000
465.500   5.529e000
465.600   5.535e000
465.700   5.541e000
465.800   5.547e000
465.900   5.553e000
466.000   5.558e000
466.100   5.564e000
466.200   5.570e000
466.300   5.576e000
466.400   5.582e000
466.500   5.588e000
466.600   5.594e000
466.700   5.600e000
466.800   5.606e000
466.900   5.611e000
467.000   5.617e000
467.100   5.623e000
467.200   5.629e000
467.300   5.635e000
467.400   5.641e000
467.500   5.647e000
467.600   5.653e000
467.700   5.659e000
467.800   5.665e000
467.900   5.671e000
468.000   5.677e000
468.100   5.683e000
468.200   5.688e000
468.300   5.694e000
468.400   5.700e000
468.500   5.706e000
468.600   5.712e000
468.700   5.718e000
468.800   5.724e000
468.900   5.730e000
469.000   5.736e000
469.100   5.742e000
469.200   5.748e000
469.300   5.754e000
469.400   5.760e000
469.500   5.766e000
469.600   5.772e000
469.700   5.778e000
469.800   5.784e000
469.900   5.790e000
470.000   5.796e000
470.100   5.802e000
470.200   5.808e000
470.300   5.814e000
470.400   5.820e000
470.500   5.826e000
470.600   5.832e000
470.700   5.837e000
470.800   5.843e000
470.900   5.849e000
471.000   5.855e000
471.100   5.861e000
471.200   5.867e000
471.300   5.873e000
471.400   5.879e000
471.500   5.885e000
471.600   5.891e000
471.700   5.897e000
471.800   5.903e000
471.900   5.910e000
472.000   5.916e000
472.100   5.922e000
472.200   5.928e000
472.300   5.934e000
472.400   5.940e000
472.500   5.946e000
472.600   5.952e000
472.700   5.958e000
472.800   5.964e000
472.900   5.970e000
473.000   5.976e000
473.100   5.982e000
473.200   5.988e000
473.300   5.994e000
473.400   6.000e000
473.500   6.006e000
473.600   6.012e000
473.700   6.018e000
473.800   6.024e000
473.900   6.030e000
474.000   6.036e000
474.100   6.042e000
474.200   6.048e000
474.300   6.054e000
474.400   6.061e000
474.500   6.067e000
474.600   6.073e000
474.700   6.079e000
474.800   6.085e000
474.900   6.091e000
475.000   6.097e000
475.100   6.103e000
475.200   6.109e000
475.300   6.115e000
475.400   6.121e000
475.500   6.127e000
475.600   6.133e000
475.700   6.140e000
475.800   6.146e000
475.900   6.152e000
476.000   6.158e000
476.100   6.164e000
476.200   6.170e000
476.300   6.176e000
476.400   6.182e000
476.500   6.188e000
476.600   6.194e000
476.700   6.201e000
476.800   6.207e000
476.900   6.213e000
477.000   6.219e000
477.100   6.225e000
477.200   6.231e000
477.300   6.237e000
477.400   6.243e000
477.500   6.250e000
477.600   6.256e000
477.700   6.262e000
477.800   6.268e000
477.900   6.274e000
478.000   6.280e000
478.100   6.286e000
478.200   6.292e000
478.300   6.299e000
478.400   6.305e000
478.500   6.311e000
478.600   6.317e000
478.700   6.323e000
478.800   6.329e000
478.900   6.335e000
479.000   6.342e000
479.100   6.348e000
479.200   6.354e000
479.300   6.360e000
479.400   6.366e000
479.500   6.372e000
479.600   6.379e000
479.700   6.385e000
479.800   6.391e000
479.900   6.397e000
480.000   6.403e000
480.100   6.409e000
480.200   6.416e000
480.300   6.422e000
480.400   6.428e000
480.500   6.434e000
480.600   6.440e000
480.700   6.447e000
480.800   6.453e000
480.900   6.459e000
481.000   6.465e000
481.100   6.471e000
481.200   6.478e000
481.300   6.484e000
481.400   6.490e000
481.500   6.496e000
481.600   6.502e000
481.700   6.509e000
481.800   6.515e000
481.900   6.521e000
482.000   6.527e000
482.100   6.533e000
482.200   6.540e000
482.300   6.546e000
482.400   6.552e000
482.500   6.558e000
482.600   6.564e000
482.700   6.571e000
482.800   6.577e000
482.900   6.583e000
483.000   6.589e000
483.100   6.596e000
483.200   6.602e000
483.300   6.608e000
483.400   6.614e000
483.500   6.621e000
483.600   6.627e000
483.700   6.633e000
483.800   6.639e000
483.900   6.646e000
484.000   6.652e000
484.100   6.658e000
484.200   6.664e000
484.300   6.671e000
484.400   6.677e000
484.500   6.683e000
484.600   6.689e000
484.700   6.696e000
484.800   6.702e000
484.900   6.708e000
485.000   6.714e000
485.100   6.721e000
485.200   6.727e000
485.300   6.733e000
485.400   6.739e000
485.500   6.746e000
485.600   6.752e000
485.700   6.758e000
485.800   6.765e000
485.900   6.771e000
486.000   6.777e000
486.100   6.783e000
486.200   6.790e000
486.300   6.796e000
486.400   6.802e000
486.500   6.809e000
486.600   6.815e000
486.700   6.821e000
486.800   6.827e000
486.900   6.834e000
487.000   6.840e000
487.100   6.846e000
487.200   6.853e000
487.300   6.859e000
487.400   6.865e000
487.500   6.872e000
487.600   6.878e000
487.700   6.884e000
487.800   6.890e000
487.900   6.897e000
488.000   6.903e000
488.100   6.909e000
488.200   6.916e000
488.300   6.922e000
488.400   6.928e000
488.500   6.935e000
488.600   6.941e000
488.700   6.947e000
488.800   6.954e000
488.900   6.960e000
489.000   6.966e000
489.100   6.973e000
489.200   6.979e000
489.300   6.985e000
489.400   6.992e000
489.500   6.998e000
489.600   7.004e000
489.700   7.011e000
489.800   7.017e000
489.900   7.023e000
490.000   7.030e000
490.100   7.036e000
490.200   7.042e000
490.300   7.049e000
490.400   7.055e000
490.500   7.061e000
490.600   7.068e000
490.700   7.074e000
490.800   7.081e000
490.900   7.087e000
491.000   7.093e000
491.100   7.100e000
491.200   7.106e000
491.300   7.112e000
491.400   7.119e000
491.500   7.125e000
491.600   7.131e000
491.700   7.138e000
491.800   7.144e000
491.900   7.151e000
492.000   7.157e000
492.100   7.163e000
492.200   7.170e000
492.300   7.176e000
492.400   7.182e000
492.500   7.189e000
492.600   7.195e000
492.700   7.202e000
492.800   7.208e000
492.900   7.214e000
493.000   7.221e000
493.100   7.227e000
493.200   7.234e000
493.300   7.240e000
493.400   7.246e000
493.500   7.253e000
493.600   7.259e000
493.700   7.266e000
493.800   7.272e000
493.900   7.278e000
494.000   7.285e000
494.100   7.291e000
494.200   7.298e000
494.300   7.304e000
494.400   7.310e000
494.500   7.317e000
494.600   7.323e000
494.700   7.330e000
494.800   7.336e000
494.900   7.343e000
495.000   7.349e000
495.100   7.355e000
495.200   7.362e000
495.300   7.368e000
495.400   7.375e000
495.500   7.381e000
495.600   7.388e000
495.700   7.394e000
495.800   7.400e000
495.900   7.407e000
496.000   7.413e000
496.100   7.420e000
496.200   7.426e000
496.300   7.433e000
496.400   7.439e000
496.500   7.446e000
496.600   7.452e000
496.700   7.458e000
496.800   7.465e000
496.900   7.471e000
497.000   7.478e000
497.100   7.484e000
497.200   7.491e000
497.300   7.497e000
497.400   7.504e000
497.500   7.510e000
497.600   7.516e000
497.700   7.523e000
497.800   7.529e000
497.900   7.536e000
498.000   7.542e000
498.100   7.549e000
498.200   7.555e000
498.300   7.562e000
498.400   7.568e000
498.500   7.575e000
498.600   7.581e000
498.700   7.588e000
498.800   7.594e000
498.900   7.601e000
499.000   7.607e000
499.100   7.614e000
499.200   7.620e000
499.300   7.627e000
499.400   7.633e000
499.500   7.640e000
499.600   7.646e000
499.700   7.653e000
499.800   7.659e000
499.900   7.666e000
500.000   7.672e000
500.100   7.678e000
500.200   7.685e000
500.300   7.691e000
500.400   7.698e000
500.500   7.705e000
500.600   7.711e000
500.700   7.718e000
500.800   7.724e000
500.900   7.731e000
501.000   7.737e000
501.100   7.744e000
501.200   7.750e000
501.300   7.757e000
501.400   7.763e000
501.500   7.770e000
501.600   7.776e000
501.700   7.783e000
501.800   7.789e000
501.900   7.796e000
502.000   7.802e000
502.100   7.809e000
502.200   7.815e000
502.300   7.822e000
502.400   7.828e000
502.500   7.835e000
502.600   7.841e000
502.700   7.848e000
502.800   7.854e000
502.900   7.861e000
503.000   7.868e000
503.100   7.874e000
503.200   7.881e000
503.300   7.887e000
503.400   7.894e000
503.500   7.900e000
503.600   7.907e000
503.700   7.913e000
503.800   7.920e000
503.900   7.926e000
504.000   7.933e000
504.100   7.940e000
504.200   7.946e000
504.300   7.953e000
504.400   7.959e000
504.500   7.966e000
504.600   7.972e000
504.700   7.979e000
504.800   7.985e000
504.900   7.992e000
505.000   7.999e000
505.100   8.005e000
505.200   8.012e000
505.300   8.018e000
505.400   8.025e000
505.500   8.031e000
505.600   8.038e000
505.700   8.044e000
505.800   8.051e000
505.900   8.058e000
506.000   8.064e000
506.100   8.071e000
506.200   8.077e000
506.300   8.084e000
506.400   8.090e000
506.500   8.097e000
506.600   8.104e000
506.700   8.110e000
506.800   8.117e000
506.900   8.123e000
507.000   8.130e000
507.100   8.137e000
507.200   8.143e000
507.300   8.150e000
507.400   8.156e000
507.500   8.163e000
507.600   8.169e000
507.700   8.176e000
507.800   8.183e000
507.900   8.189e000
508.000   8.196e000
508.100   8.202e000
508.200   8.209e000
508.300   8.216e000
508.400   8.222e000
508.500   8.229e000
508.600   8.235e000
508.700   8.242e000
508.800   8.249e000
508.900   8.255e000
509.000   8.262e000
509.100   8.268e000
509.200   8.275e000
509.300   8.282e000
509.400   8.288e000
509.500   8.295e000
509.600   8.301e000
509.700   8.308e000
509.800   8.315e000
509.900   8.321e000
510.000   8.328e000
510.100   8.335e000
510.200   8.341e000
510.300   8.348e000
510.400   8.354e000
510.500   8.361e000
510.600   8.368e000
510.700   8.374e000
510.800   8.381e000
510.900   8.388e000
511.000   8.394e000
511.100   8.401e000
511.200   8.407e000
511.300   8.414e000
511.400   8.421e000
511.500   8.427e000
511.600   8.434e000
511.700   8.441e000
511.800   8.447e000
511.900   8.454e000
512.000   8.460e000
512.100   8.467e000
512.200   8.474e000
512.300   8.480e000
512.400   8.487e000
512.500   8.494e000
512.600   8.500e000
512.700   8.507e000
512.800   8.514e000
512.900   8.520e000
513.000   8.527e000
513.100   8.533e000
513.200   8.540e000
513.300   8.547e000
513.400   8.553e000
513.500   8.560e000
513.600   8.567e000
513.700   8.573e000
513.800   8.580e000
513.900   8.587e000
514.000   8.593e000
514.100   8.600e000
514.200   8.607e000
514.300   8.613e000
514.400   8.620e000
514.500   8.627e000
514.600   8.633e000
514.700   8.640e000
514.800   8.647e000
514.900   8.653e000
515.000   8.660e000
515.100   8.667e000
515.200   8.673e000
515.300   8.680e000
515.400   8.686e000
515.500   8.693e000
515.600   8.700e000
515.700   8.706e000
515.800   8.713e000
515.900   8.720e000
516.000   8.726e000
516.100   8.733e000
516.200   8.740e000
516.300   8.747e000
516.400   8.753e000
516.500   8.760e000
516.600   8.767e000
516.700   8.773e000
516.800   8.780e000
516.900   8.787e000
517.000   8.793e000
517.100   8.800e000
517.200   8.807e000
517.300   8.813e000
517.400   8.820e000
517.500   8.827e000
517.600   8.833e000
517.700   8.840e000
517.800   8.847e000
517.900   8.853e000
518.000   8.860e000
518.100   8.867e000
518.200   8.873e000
518.300   8.880e000
518.400   8.887e000
518.500   8.893e000
518.600   8.900e000
518.700   8.907e000
518.800   8.914e000
518.900   8.920e000
519.000   8.927e000
519.100   8.934e000
519.200   8.940e000
519.300   8.947e000
519.400   8.954e000
519.500   8.960e000
519.600   8.967e000
519.700   8.974e000
519.800   8.980e000
519.900   8.987e000
520.000   8.994e000
520.100   9.001e000
520.200   9.007e000
520.300   9.014e000
520.400   9.021e000
520.500   9.027e000
520.600   9.034e000
520.700   9.041e000
520.800   9.048e000
520.900   9.054e000
521.000   9.061e000
521.100   9.068e000
521.200   9.074e000
521.300   9.081e000
521.400   9.088e000
521.500   9.094e000
521.600   9.101e000
521.700   9.108e000
521.800   9.115e000
521.900   9.121e000
522.000   9.128e000
522.100   9.135e000
522.200   9.141e000
522.300   9.148e000
522.400   9.155e000
522.500   9.162e000
522.600   9.168e000
522.700   9.175e000
522.800   9.182e000
522.900   9.188e000
523.000   9.195e000
523.100   9.202e000
523.200   9.209e000
523.300   9.215e000
523.400   9.222e000
523.500   9.229e000
523.600   9.235e000
523.700   9.242e000
523.800   9.249e000
523.900   9.256e000
524.000   9.262e000
524.100   9.269e000
524.200   9.276e000
524.300   9.283e000
524.400   9.289e000
524.500   9.296e000
524.600   9.303e000
524.700   9.309e000
524.800   9.316e000
524.900   9.323e000
525.000   9.330e000
525.100   9.336e000
525.200   9.343e000
525.300   9.350e000
525.400   9.357e000
525.500   9.363e000
525.600   9.370e000
525.700   9.377e000
525.800   9.384e000
525.900   9.390e000
526.000   9.397e000
526.100   9.404e000
526.200   9.410e000
526.300   9.417e000
526.400   9.424e000
526.500   9.431e000
526.600   9.437e000
526.700   9.444e000
526.800   9.451e000
526.900   9.458e000
527.000   9.464e000
527.100   9.471e000
527.200   9.478e000
527.300   9.485e000
527.400   9.491e000
527.500   9.498e000
527.600   9.505e000
527.700   9.512e000
527.800   9.518e000
527.900   9.525e000
528.000   9.532e000
528.100   9.539e000
528.200   9.545e000
528.300   9.552e000
528.400   9.559e000
528.500   9.566e000
528.600   9.572e000
528.700   9.579e000
528.800   9.586e000
528.900   9.593e000
529.000   9.599e000
529.100   9.606e000
529.200   9.613e000
529.300   9.620e000
529.400   9.626e000
529.500   9.633e000
529.600   9.640e000
529.700   9.647e000
529.800   9.653e000
529.900   9.660e000
530.000   9.667e000
530.100   9.674e000
530.200   9.680e000
530.300   9.687e000
530.400   9.694e000
530.500   9.701e000
530.600   9.707e000
530.700   9.714e000
530.800   9.721e000
530.900   9.728e000
531.000   9.734e000
531.100   9.741e000
531.200   9.748e000
531.300   9.755e000
531.400   9.761e000
531.500   9.768e000
531.600   9.775e000
531.700   9.782e000
531.800   9.788e000
531.900   9.795e000
532.000   9.802e000
532.100   9.809e000
532.200   9.815e000
532.300   9.822e000
532.400   9.829e000
532.500   9.836e000
532.600   9.843e000
532.700   9.849e000
532.800   9.856e000
532.900   9.863e000
533.000   9.870e000
533.100   9.876e000
533.200   9.883e000
533.300   9.890e000
533.400   9.897e000
533.500   9.903e000
533.600   9.910e000
533.700   9.917e000
533.800   9.924e000
533.900   9.930e000
534.000   9.937e000
534.100   9.944e000
534.200   9.951e000
534.300   9.958e000
534.400   9.964e000
534.500   9.971e000
534.600   9.978e000
534.700   9.985e000
534.800   9.991e000
534.900   9.998e000
535.000   1.000e001
535.100   1.001e001
535.200   1.002e001
535.300   1.003e001
535.400   1.003e001
535.500   1.004e001
535.600   1.005e001
535.700   1.005e001
535.800   1.006e001
535.900   1.007e001
536.000   1.007e001
536.100   1.008e001
536.200   1.009e001
536.300   1.009e001
536.400   1.010e001
536.500   1.011e001
536.600   1.011e001
536.700   1.012e001
536.800   1.013e001
536.900   1.013e001
537.000   1.014e001
537.100   1.015e001
537.200   1.015e001
537.300   1.016e001
537.400   1.017e001
537.500   1.017e001
537.600   1.018e001
537.700   1.019e001
537.800   1.019e001
537.900   1.020e001
538.000   1.021e001
538.100   1.021e001
538.200   1.022e001
538.300   1.023e001
538.400   1.024e001
538.500   1.024e001
538.600   1.025e001
538.700   1.026e001
538.800   1.026e001
538.900   1.027e001
539.000   1.028e001
539.100   1.028e001
539.200   1.029e001
539.300   1.030e001
539.400   1.030e001
539.500   1.031e001
539.600   1.032e001
539.700   1.032e001
539.800   1.033e001
539.900   1.034e001
540.000   1.034e001
540.100   1.035e001
540.200   1.036e001
540.300   1.036e001
540.400   1.037e001
540.500   1.038e001
540.600   1.038e001
540.700   1.039e001
540.800   1.040e001
540.900   1.040e001
541.000   1.041e001
541.100   1.042e001
541.200   1.043e001
541.300   1.043e001
541.400   1.044e001
541.500   1.045e001
541.600   1.045e001
541.700   1.046e001
541.800   1.047e001
541.900   1.047e001
542.000   1.048e001
542.100   1.049e001
542.200   1.049e001
542.300   1.050e001
542.400   1.051e001
542.500   1.051e001
542.600   1.052e001
542.700   1.053e001
542.800   1.053e001
542.900   1.054e001
543.000   1.055e001
543.100   1.055e001
543.200   1.056e001
543.300   1.057e001
543.400   1.057e001
543.500   1.058e001
543.600   1.059e001
543.700   1.059e001
543.800   1.060e001
543.900   1.061e001
544.000   1.062e001
544.100   1.062e001
544.200   1.063e001
544.300   1.064e001
544.400   1.064e001
544.500   1.065e001
544.600   1.066e001
544.700   1.066e001
544.800   1.067e001
544.900   1.068e001
545.000   1.068e001
545.100   1.069e001
545.200   1.070e001
545.300   1.070e001
545.400   1.071e001
545.500   1.072e001
545.600   1.072e001
545.700   1.073e001
545.800   1.074e001
545.900   1.074e001
546.000   1.075e001
546.100   1.076e001
546.200   1.076e001
546.300   1.077e001
546.400   1.078e001
546.500   1.078e001
546.600   1.079e001
546.700   1.080e001
546.800   1.080e001
546.900   1.081e001
547.000   1.082e001
547.100   1.083e001
547.200   1.083e001
547.300   1.084e001
547.400   1.085e001
547.500   1.085e001
547.600   1.086e001
547.700   1.087e001
547.800   1.087e001
547.900   1.088e001
548.000   1.089e001
548.100   1.089e001
548.200   1.090e001
548.300   1.091e001
548.400   1.091e001
548.500   1.092e001
548.600   1.093e001
548.700   1.093e001
548.800   1.094e001
548.900   1.095e001
549.000   1.095e001
549.100   1.096e001
549.200   1.097e001
549.300   1.097e001
549.400   1.098e001
549.500   1.099e001
549.600   1.099e001
549.700   1.100e001
549.800   1.101e001
549.900   1.101e001
550.000   1.102e001
550.100   1.103e001
550.200   1.104e001
550.300   1.104e001
550.400   1.105e001
550.500   1.106e001
550.600   1.106e001
550.700   1.107e001
550.800   1.108e001
550.900   1.108e001
551.000   1.109e001
551.100   1.110e001
551.200   1.110e001
551.300   1.111e001
551.400   1.112e001
551.500   1.112e001
551.600   1.113e001
551.700   1.114e001
551.800   1.114e001
551.900   1.115e001
552.000   1.116e001
552.100   1.116e001
552.200   1.117e001
552.300   1.118e001
552.400   1.118e001
552.500   1.119e001
552.600   1.120e001
552.700   1.120e001
552.800   1.121e001
552.900   1.122e001
553.000   1.122e001
553.100   1.123e001
553.200   1.124e001
553.300   1.124e001
553.400   1.125e001
553.500   1.126e001
553.600   1.126e001
553.700   1.127e001
553.800   1.128e001
553.900   1.129e001
554.000   1.129e001
554.100   1.130e001
554.200   1.131e001
554.300   1.131e001
554.400   1.132e001
554.500   1.133e001
554.600   1.133e001
554.700   1.134e001
554.800   1.135e001
554.900   1.135e001
555.000   1.136e001
555.100   1.137e001
555.200   1.137e001
555.300   1.138e001
555.400   1.139e001
555.500   1.139e001
555.600   1.140e001
555.700   1.141e001
555.800   1.141e001
555.900   1.142e001
556.000   1.143e001
556.100   1.143e001
556.200   1.144e001
556.300   1.145e001
556.400   1.145e001
556.500   1.146e001
556.600   1.147e001
556.700   1.147e001
556.800   1.148e001
556.900   1.149e001
557.000   1.149e001
557.100   1.150e001
557.200   1.151e001
557.300   1.151e001
557.400   1.152e001
557.500   1.153e001
557.600   1.153e001
557.700   1.154e001
557.800   1.155e001
557.900   1.155e001
558.000   1.156e001
558.100   1.157e001
558.200   1.157e001
558.300   1.158e001
558.400   1.159e001
558.500   1.160e001
558.600   1.160e001
558.700   1.161e001
558.800   1.162e001
558.900   1.162e001
559.000   1.163e001
559.100   1.164e001
559.200   1.164e001
559.300   1.165e001
559.400   1.166e001
559.500   1.166e001
559.600   1.167e001
559.700   1.168e001
559.800   1.168e001
559.900   1.169e001
560.000   1.170e001
560.100   1.170e001
560.200   1.171e001
560.300   1.172e001
560.400   1.172e001
560.500   1.173e001
560.600   1.174e001
560.700   1.174e001
560.800   1.175e001
560.900   1.176e001
561.000   1.176e001
561.100   1.177e001
561.200   1.178e001
561.300   1.178e001
561.400   1.179e001
561.500   1.180e001
561.600   1.180e001
561.700   1.181e001
561.800   1.182e001
561.900   1.182e001
562.000   1.183e001
562.100   1.184e001
562.200   1.184e001
562.300   1.185e001
562.400   1.186e001
562.500   1.186e001
562.600   1.187e001
562.700   1.188e001
562.800   1.188e001
562.900   1.189e001
563.000   1.190e001
563.100   1.190e001
563.200   1.191e001
563.300   1.192e001
563.400   1.192e001
563.500   1.193e001
563.600   1.194e001
563.700   1.194e001
563.800   1.195e001
563.900   1.196e001
564.000   1.196e001
564.100   1.197e001
564.200   1.198e001
564.300   1.198e001
564.400   1.199e001
564.500   1.200e001
564.600   1.200e001
564.700   1.201e001
564.800   1.202e001
564.900   1.202e001
565.000   1.203e001
565.100   1.204e001
565.200   1.204e001
565.300   1.205e001
565.400   1.206e001
565.500   1.206e001
565.600   1.207e001
565.700   1.208e001
565.800   1.208e001
565.900   1.209e001
566.000   1.210e001
566.100   1.210e001
566.200   1.211e001
566.300   1.212e001
566.400   1.212e001
566.500   1.213e001
566.600   1.214e001
566.700   1.214e001
566.800   1.215e001
566.900   1.216e001
567.000   1.216e001
567.100   1.217e001
567.200   1.218e001
567.300   1.218e001
567.400   1.219e001
567.500   1.220e001
567.600   1.220e001
567.700   1.221e001
567.800   1.222e001
567.900   1.222e001
568.000   1.223e001
568.100   1.224e001
568.200   1.224e001
568.300   1.225e001
568.400   1.226e001
568.500   1.226e001
568.600   1.227e001
568.700   1.228e001
568.800   1.228e001
568.900   1.229e001
569.000   1.230e001
569.100   1.230e001
569.200   1.231e001
569.300   1.232e001
569.400   1.232e001
569.500   1.233e001
569.600   1.234e001
569.700   1.234e001
569.800   1.235e001
569.900   1.236e001
570.000   1.236e001
570.100   1.237e001
570.200   1.238e001
570.300   1.238e001
570.400   1.239e001
570.500   1.240e001
570.600   1.240e001
570.700   1.241e001
570.800   1.242e001
570.900   1.242e001
571.000   1.243e001
571.100   1.244e001
571.200   1.244e001
571.300   1.245e001
571.400   1.246e001
571.500   1.246e001
571.600   1.247e001
571.700   1.248e001
571.800   1.248e001
571.900   1.249e001
572.000   1.250e001
572.100   1.250e001
572.200   1.251e001
572.300   1.252e001
572.400   1.252e001
572.500   1.253e001
572.600   1.254e001
572.700   1.254e001
572.800   1.255e001
572.900   1.256e001
573.000   1.256e001
573.100   1.257e001
573.200   1.258e001
573.300   1.258e001
573.400   1.259e001
573.500   1.260e001
573.600   1.260e001
573.700   1.261e001
573.800   1.262e001
573.900   1.262e001
574.000   1.263e001
574.100   1.264e001
574.200   1.264e001
574.300   1.265e001
574.400   1.266e001
574.500   1.266e001
574.600   1.267e001
574.700   1.268e001
574.800   1.268e001
574.900   1.269e001
575.000   1.270e001
575.100   1.270e001
575.200   1.271e001
575.300   1.272e001
575.400   1.272e001
575.500   1.273e001
575.600   1.274e001
575.700   1.274e001
575.800   1.275e001
575.900   1.276e001
576.000   1.276e001
576.100   1.277e001
576.200   1.278e001
576.300   1.278e001
576.400   1.279e001
576.500   1.280e001
576.600   1.280e001
576.700   1.281e001
576.800   1.281e001
576.900   1.282e001
577.000   1.283e001
577.100   1.283e001
577.200   1.284e001
577.300   1.285e001
577.400   1.285e001
577.500   1.286e001
577.600   1.287e001
577.700   1.287e001
577.800   1.288e001
577.900   1.289e001
578.000   1.289e001
578.100   1.290e001
578.200   1.291e001
578.300   1.291e001
578.400   1.292e001
578.500   1.293e001
578.600   1.293e001
578.700   1.294e001
578.800   1.295e001
578.900   1.295e001
579.000   1.296e001
579.100   1.297e001
579.200   1.297e001
579.300   1.298e001
579.400   1.299e001
579.500   1.299e001
579.600   1.300e001
579.700   1.301e001
579.800   1.301e001
579.900   1.302e001
580.000   1.303e001
580.100   1.303e001
580.200   1.304e001
580.300   1.305e001
580.400   1.305e001
580.500   1.306e001
580.600   1.307e001
580.700   1.307e001
580.800   1.308e001
580.900   1.308e001
581.000   1.309e001
581.100   1.310e001
581.200   1.310e001
581.300   1.311e001
581.400   1.312e001
581.500   1.312e001
581.600   1.313e001
581.700   1.314e001
581.800   1.314e001
581.900   1.315e001
582.000   1.316e001
582.100   1.316e001
582.200   1.317e001
582.300   1.318e001
582.400   1.318e001
582.500   1.319e001
582.600   1.320e001
582.700   1.320e001
582.800   1.321e001
582.900   1.322e001
583.000   1.322e001
583.100   1.323e001
583.200   1.324e001
583.300   1.324e001
583.400   1.325e001
583.500   1.326e001
583.600   1.326e001
583.700   1.327e001
583.800   1.327e001
583.900   1.328e001
584.000   1.329e001
584.100   1.329e001
584.200   1.330e001
584.300   1.331e001
584.400   1.331e001
584.500   1.332e001
584.600   1.333e001
584.700   1.333e001
584.800   1.334e001
584.900   1.335e001
585.000   1.335e001
585.100   1.336e001
585.200   1.337e001
585.300   1.337e001
585.400   1.338e001
585.500   1.339e001
585.600   1.339e001
585.700   1.340e001
585.800   1.341e001
585.900   1.341e001
586.000   1.342e001
586.100   1.342e001
586.200   1.343e001
586.300   1.344e001
586.400   1.344e001
586.500   1.345e001
586.600   1.346e001
586.700   1.346e001
586.800   1.347e001
586.900   1.348e001
587.000   1.348e001
587.100   1.349e001
587.200   1.350e001
587.300   1.350e001
587.400   1.351e001
587.500   1.352e001
587.600   1.352e001
587.700   1.353e001
587.800   1.354e001
587.900   1.354e001
588.000   1.355e001
588.100   1.356e001
588.200   1.356e001
588.300   1.357e001
588.400   1.357e001
588.500   1.358e001
588.600   1.359e001
588.700   1.359e001
588.800   1.360e001
588.900   1.361e001
589.000   1.361e001
589.100   1.362e001
589.200   1.363e001
589.300   1.363e001
589.400   1.364e001
589.500   1.365e001
589.600   1.365e001
589.700   1.366e001
589.800   1.367e001
589.900   1.367e001
590.000   1.368e001
590.100   1.368e001
590.200   1.369e001
590.300   1.370e001
590.400   1.370e001
590.500   1.371e001
590.600   1.372e001
590.700   1.372e001
590.800   1.373e001
590.900   1.374e001
591.000   1.374e001
591.100   1.375e001
591.200   1.376e001
591.300   1.376e001
591.400   1.377e001
591.500   1.378e001
591.600   1.378e001
591.700   1.379e001
591.800   1.379e001
591.900   1.380e001
592.000   1.381e001
592.100   1.381e001
592.200   1.382e001
592.300   1.383e001
592.400   1.383e001
592.500   1.384e001
592.600   1.385e001
592.700   1.385e001
592.800   1.386e001
592.900   1.387e001
593.000   1.387e001
593.100   1.388e001
593.200   1.389e001
593.300   1.389e001
593.400   1.390e001
593.500   1.390e001
593.600   1.391e001
593.700   1.392e001
593.800   1.392e001
593.900   1.393e001
594.000   1.394e001
594.100   1.394e001
594.200   1.395e001
594.300   1.396e001
594.400   1.396e001
594.500   1.397e001
594.600   1.398e001
594.700   1.398e001
594.800   1.399e001
594.900   1.399e001
595.000   1.400e001
595.100   1.401e001
595.200   1.401e001
595.300   1.402e001
595.400   1.403e001
595.500   1.403e001
595.600   1.404e001
595.700   1.405e001
595.800   1.405e001
595.900   1.406e001
596.000   1.407e001
596.100   1.407e001
596.200   1.408e001
596.300   1.408e001
596.400   1.409e001
596.500   1.410e001
596.600   1.410e001
596.700   1.411e001
596.800   1.412e001
596.900   1.412e001
597.000   1.413e001
597.100   1.414e001
597.200   1.414e001
597.300   1.415e001
597.400   1.415e001
597.500   1.416e001
597.600   1.417e001
597.700   1.417e001
597.800   1.418e001
597.900   1.419e001
598.000   1.419e001
598.100   1.420e001
598.200   1.421e001
598.300   1.421e001
598.400   1.422e001
598.500   1.422e001
598.600   1.423e001
598.700   1.424e001
598.800   1.424e001
598.900   1.425e001
599.000   1.426e001
599.100   1.426e001
599.200   1.427e001
599.300   1.428e001
599.400   1.428e001
599.500   1.429e001
599.600   1.429e001
599.700   1.430e001
599.800   1.431e001
599.900   1.431e001
600.000   1.432e001
600.100   1.433e001
600.200   1.433e001
600.300   1.434e001
600.400   1.435e001
600.500   1.435e001
600.600   1.436e001
600.700   1.436e001
600.800   1.437e001
600.900   1.438e001
601.000   1.438e001
601.100   1.439e001
601.200   1.440e001
601.300   1.440e001
601.400   1.441e001
601.500   1.441e001
601.600   1.442e001
601.700   1.443e001
601.800   1.443e001
601.900   1.444e001
602.000   1.445e001
602.100   1.445e001
602.200   1.446e001
602.300   1.447e001
602.400   1.447e001
602.500   1.448e001
602.600   1.448e001
602.700   1.449e001
602.800   1.450e001
602.900   1.450e001
603.000   1.451e001
603.100   1.452e001
603.200   1.452e001
603.300   1.453e001
603.400   1.453e001
603.500   1.454e001
603.600   1.455e001
603.700   1.455e001
603.800   1.456e001
603.900   1.457e001
604.000   1.457e001
604.100   1.458e001
604.200   1.458e001
604.300   1.459e001
604.400   1.460e001
604.500   1.460e001
604.600   1.461e001
604.700   1.462e001
604.800   1.462e001
604.900   1.463e001
605.000   1.463e001
605.100   1.464e001
605.200   1.465e001
605.300   1.465e001
605.400   1.466e001
605.500   1.467e001
605.600   1.467e001
605.700   1.468e001
605.800   1.468e001
605.900   1.469e001
606.000   1.470e001
606.100   1.470e001
606.200   1.471e001
606.300   1.472e001
606.400   1.472e001
606.500   1.473e001
606.600   1.473e001
606.700   1.474e001
606.800   1.475e001
606.900   1.475e001
607.000   1.476e001
607.100   1.477e001
607.200   1.477e001
607.300   1.478e001
607.400   1.478e001
607.500   1.479e001
607.600   1.480e001
607.700   1.480e001
607.800   1.481e001
607.900   1.482e001
608.000   1.482e001
608.100   1.483e001
608.200   1.483e001
608.300   1.484e001
608.400   1.485e001
608.500   1.485e001
608.600   1.486e001
608.700   1.487e001
608.800   1.487e001
608.900   1.488e001
609.000   1.488e001
609.100   1.489e001
609.200   1.490e001
609.300   1.490e001
609.400   1.491e001
609.500   1.491e001
609.600   1.492e001
609.700   1.493e001
609.800   1.493e001
609.900   1.494e001
610.000   1.495e001
610.100   1.495e001
610.200   1.496e001
610.300   1.496e001
610.400   1.497e001
610.500   1.498e001
610.600   1.498e001
610.700   1.499e001
610.800   1.500e001
610.900   1.500e001
611.000   1.501e001
611.100   1.501e001
611.200   1.502e001
611.300   1.503e001
611.400   1.503e001
611.500   1.504e001
611.600   1.504e001
611.700   1.505e001
611.800   1.506e001
611.900   1.506e001
612.000   1.507e001
612.100   1.508e001
612.200   1.508e001
612.300   1.509e001
612.400   1.509e001
612.500   1.510e001
612.600   1.511e001
612.700   1.511e001
612.800   1.512e001
612.900   1.512e001
613.000   1.513e001
613.100   1.514e001
613.200   1.514e001
613.300   1.515e001
613.400   1.516e001
613.500   1.516e001
613.600   1.517e001
613.700   1.517e001
613.800   1.518e001
613.900   1.519e001
614.000   1.519e001
614.100   1.520e001
614.200   1.520e001
614.300   1.521e001
614.400   1.522e001
614.500   1.522e001
614.600   1.523e001
614.700   1.523e001
614.800   1.524e001
614.900   1.525e001
615.000   1.525e001
615.100   1.526e001
615.200   1.527e001
615.300   1.527e001
615.400   1.528e001
615.500   1.528e001
615.600   1.529e001
615.700   1.530e001
615.800   1.530e001
615.900   1.531e001
616.000   1.531e001
616.100   1.532e001
616.200   1.533e001
616.300   1.533e001
616.400   1.534e001
616.500   1.534e001
616.600   1.535e001
616.700   1.536e001
616.800   1.536e001
616.900   1.537e001
617.000   1.538e001
617.100   1.538e001
617.200   1.539e001
617.300   1.539e001
617.400   1.540e001
617.500   1.541e001
617.600   1.541e001
617.700   1.542e001
617.800   1.542e001
617.900   1.543e001
618.000   1.544e001
618.100   1.544e001
618.200   1.545e001
618.300   1.545e001
618.400   1.546e001
618.500   1.547e001
618.600   1.547e001
618.700   1.548e001
618.800   1.548e001
618.900   1.549e001
619.000   1.550e001
619.100   1.550e001
619.200   1.551e001
619.300   1.551e001
619.400   1.552e001
619.500   1.553e001
619.600   1.553e001
619.700   1.554e001
619.800   1.554e001
619.900   1.555e001
620.000   1.556e001
620.100   1.556e001
620.200   1.557e001
620.300   1.557e001
620.400   1.558e001
620.500   1.559e001
620.600   1.559e001
620.700   1.560e001
620.800   1.560e001
620.900   1.561e001
621.000   1.562e001
621.100   1.562e001
621.200   1.563e001
621.300   1.563e001
621.400   1.564e001
621.500   1.565e001
621.600   1.565e001
621.700   1.566e001
621.800   1.566e001
621.900   1.567e001
622.000   1.568e001
622.100   1.568e001
622.200   1.569e001
622.300   1.569e001
622.400   1.570e001
622.500   1.571e001
622.600   1.571e001
622.700   1.572e001
622.800   1.572e001
622.900   1.573e001
623.000   1.574e001
623.100   1.574e001
623.200   1.575e001
623.300   1.575e001
623.400   1.576e001
623.500   1.577e001
623.600   1.577e001
623.700   1.578e001
623.800   1.578e001
623.900   1.579e001
624.000   1.580e001
624.100   1.580e001
624.200   1.581e001
624.300   1.581e001
624.400   1.582e001
624.500   1.583e001
624.600   1.583e001
624.700   1.584e001
624.800   1.584e001
624.900   1.585e001
625.000   1.586e001
625.100   1.586e001
625.200   1.587e001
625.300   1.587e001
625.400   1.588e001
625.500   1.589e001
625.600   1.589e001
625.700   1.590e001
625.800   1.590e001
625.900   1.591e001
626.000   1.592e001
626.100   1.592e001
626.200   1.593e001
626.300   1.593e001
626.400   1.594e001
626.500   1.594e001
626.600   1.595e001
626.700   1.596e001
626.800   1.596e001
626.900   1.597e001
627.000   1.597e001
627.100   1.598e001
627.200   1.599e001
627.300   1.599e001
627.400   1.600e001
627.500   1.600e001
627.600   1.601e001
627.700   1.602e001
627.800   1.602e001
627.900   1.603e001
628.000   1.603e001
628.100   1.604e001
628.200   1.605e001
628.300   1.605e001
628.400   1.606e001
628.500   1.606e001
628.600   1.607e001
628.700   1.607e001
628.800   1.608e001
628.900   1.609e001
629.000   1.609e001
629.100   1.610e001
629.200   1.610e001
629.300   1.611e001
629.400   1.612e001
629.500   1.612e001
629.600   1.613e001
629.700   1.613e001
629.800   1.614e001
629.900   1.614e001
630.000   1.615e001
630.100   1.616e001
630.200   1.616e001
630.300   1.617e001
630.400   1.617e001
630.500   1.618e001
630.600   1.619e001
630.700   1.619e001
630.800   1.620e001
630.900   1.620e001
631.000   1.621e001
631.100   1.621e001
631.200   1.622e001
631.300   1.623e001
631.400   1.623e001
631.500   1.624e001
631.600   1.624e001
631.700   1.625e001
631.800   1.626e001
631.900   1.626e001
632.000   1.627e001
632.100   1.627e001
632.200   1.628e001
632.300   1.628e001
632.400   1.629e001
632.500   1.630e001
632.600   1.630e001
632.700   1.631e001
632.800   1.631e001
632.900   1.632e001
633.000   1.633e001
633.100   1.633e001
633.200   1.634e001
633.300   1.634e001
633.400   1.635e001
633.500   1.635e001
633.600   1.636e001
633.700   1.637e001
633.800   1.637e001
633.900   1.638e001
634.000   1.638e001
634.100   1.639e001
634.200   1.639e001
634.300   1.640e001
634.400   1.641e001
634.500   1.641e001
634.600   1.642e001
634.700   1.642e001
634.800   1.643e001
634.900   1.644e001
635.000   1.644e001
635.100   1.645e001
635.200   1.645e001
635.300   1.646e001
635.400   1.646e001
635.500   1.647e001
635.600   1.648e001
635.700   1.648e001
635.800   1.649e001
635.900   1.649e001
636.000   1.650e001
636.100   1.650e001
636.200   1.651e001
636.300   1.652e001
636.400   1.652e001
636.500   1.653e001
636.600   1.653e001
636.700   1.654e001
636.800   1.654e001
636.900   1.655e001
637.000   1.656e001
637.100   1.656e001
637.200   1.657e001
637.300   1.657e001
637.400   1.658e001
637.500   1.658e001
637.600   1.659e001
637.700   1.660e001
637.800   1.660e001
637.900   1.661e001
638.000   1.661e001
638.100   1.662e001
638.200   1.662e001
638.300   1.663e001
638.400   1.664e001
638.500   1.664e001
638.600   1.665e001
638.700   1.665e001
638.800   1.666e001
638.900   1.666e001
639.000   1.667e001
639.100   1.668e001
639.200   1.668e001
639.300   1.669e001
639.400   1.669e001
639.500   1.670e001
639.600   1.670e001
639.700   1.671e001
639.800   1.671e001
639.900   1.672e001
640.000   1.673e001
640.100   1.673e001
640.200   1.674e001
640.300   1.674e001
640.400   1.675e001
640.500   1.675e001
640.600   1.676e001
640.700   1.677e001
640.800   1.677e001
640.900   1.678e001
641.000   1.678e001
641.100   1.679e001
641.200   1.679e001
641.300   1.680e001
641.400   1.681e001
641.500   1.681e001
641.600   1.682e001
641.700   1.682e001
641.800   1.683e001
641.900   1.683e001
642.000   1.684e001
642.100   1.684e001
642.200   1.685e001
642.300   1.686e001
642.400   1.686e001
642.500   1.687e001
642.600   1.687e001
642.700   1.688e001
642.800   1.688e001
642.900   1.689e001
643.000   1.690e001
643.100   1.690e001
643.200   1.691e001
643.300   1.691e001
643.400   1.692e001
643.500   1.692e001
643.600   1.693e001
643.700   1.693e001
643.800   1.694e001
643.900   1.695e001
644.000   1.695e001
644.100   1.696e001
644.200   1.696e001
644.300   1.697e001
644.400   1.697e001
644.500   1.698e001
644.600   1.698e001
644.700   1.699e001
644.800   1.700e001
644.900   1.700e001
645.000   1.701e001
645.100   1.701e001
645.200   1.702e001
645.300   1.702e001
645.400   1.703e001
645.500   1.703e001
645.600   1.704e001
645.700   1.705e001
645.800   1.705e001
645.900   1.706e001
646.000   1.706e001
646.100   1.707e001
646.200   1.707e001
646.300   1.708e001
646.400   1.708e001
646.500   1.709e001
646.600   1.710e001
646.700   1.710e001
646.800   1.711e001
646.900   1.711e001
647.000   1.712e001
647.100   1.712e001
647.200   1.713e001
647.300   1.713e001
647.400   1.714e001
647.500   1.715e001
647.600   1.715e001
647.700   1.716e001
647.800   1.716e001
647.900   1.717e001
648.000   1.717e001
648.100   1.718e001
648.200   1.718e001
648.300   1.719e001
648.400   1.719e001
648.500   1.720e001
648.600   1.721e001
648.700   1.721e001
648.800   1.722e001
648.900   1.722e001
649.000   1.723e001
649.100   1.723e001
649.200   1.724e001
649.300   1.724e001
649.400   1.725e001
649.500   1.725e001
649.600   1.726e001
649.700   1.727e001
649.800   1.727e001
649.900   1.728e001
650.000   1.728e001
650.100   1.729e001
650.200   1.729e001
650.300   1.730e001
650.400   1.730e001
650.500   1.731e001
650.600   1.731e001
650.700   1.732e001
650.800   1.733e001
650.900   1.733e001
651.000   1.734e001
651.100   1.734e001
651.200   1.735e001
651.300   1.735e001
651.400   1.736e001
651.500   1.736e001
651.600   1.737e001
651.700   1.737e001
651.800   1.738e001
651.900   1.738e001
652.000   1.739e001
652.100   1.740e001
652.200   1.740e001
652.300   1.741e001
652.400   1.741e001
652.500   1.742e001
652.600   1.742e001
652.700   1.743e001
652.800   1.743e001
652.900   1.744e001
653.000   1.744e001
653.100   1.745e001
653.200   1.745e001
653.300   1.746e001
653.400   1.746e001
653.500   1.747e001
653.600   1.748e001
653.700   1.748e001
653.800   1.749e001
653.900   1.749e001
654.000   1.750e001
654.100   1.750e001
654.200   1.751e001
654.300   1.751e001
654.400   1.752e001
654.500   1.752e001
654.600   1.753e001
654.700   1.753e001
654.800   1.754e001
654.900   1.754e001
655.000   1.755e001
655.100   1.756e001
655.200   1.756e001
655.300   1.757e001
655.400   1.757e001
655.500   1.758e001
655.600   1.758e001
655.700   1.759e001
655.800   1.759e001
655.900   1.760e001
656.000   1.760e001
656.100   1.761e001
656.200   1.761e001
656.300   1.762e001
656.400   1.762e001
656.500   1.763e001
656.600   1.763e001
656.700   1.764e001
656.800   1.765e001
656.900   1.765e001
657.000   1.766e001
657.100   1.766e001
657.200   1.767e001
657.300   1.767e001
657.400   1.768e001
657.500   1.768e001
657.600   1.769e001
657.700   1.769e001
657.800   1.770e001
657.900   1.770e001
658.000   1.771e001
658.100   1.771e001
658.200   1.772e001
658.300   1.772e001
658.400   1.773e001
658.500   1.773e001
658.600   1.774e001
658.700   1.774e001
658.800   1.775e001
658.900   1.776e001
659.000   1.776e001
659.100   1.777e001
659.200   1.777e001
659.300   1.778e001
659.400   1.778e001
659.500   1.779e001
659.600   1.779e001
659.700   1.780e001
659.800   1.780e001
659.900   1.781e001
660.000   1.781e001
660.100   1.782e001
660.200   1.782e001
660.300   1.783e001
660.400   1.783e001
660.500   1.784e001
660.600   1.784e001
660.700   1.785e001
660.800   1.785e001
660.900   1.786e001
661.000   1.786e001
661.100   1.787e001
661.200   1.787e001
661.300   1.788e001
661.400   1.788e001
661.500   1.789e001
661.600   1.789e001
661.700   1.790e001
661.800   1.791e001
661.900   1.791e001
662.000   1.792e001
662.100   1.792e001
662.200   1.793e001
662.300   1.793e001
662.400   1.794e001
662.500   1.794e001
662.600   1.795e001
662.700   1.795e001
662.800   1.796e001
662.900   1.796e001
663.000   1.797e001
663.100   1.797e001
663.200   1.798e001
663.300   1.798e001
663.400   1.799e001
663.500   1.799e001
663.600   1.800e001
663.700   1.800e001
663.800   1.801e001
663.900   1.801e001
664.000   1.802e001
664.100   1.802e001
664.200   1.803e001
664.300   1.803e001
664.400   1.804e001
664.500   1.804e001
664.600   1.805e001
664.700   1.805e001
664.800   1.806e001
664.900   1.806e001
665.000   1.807e001
665.100   1.807e001
665.200   1.808e001
665.300   1.808e001
665.400   1.809e001
665.500   1.809e001
665.600   1.810e001
665.700   1.810e001
665.800   1.811e001
665.900   1.811e001
666.000   1.812e001
666.100   1.812e001
666.200   1.813e001
666.300   1.813e001
666.400   1.814e001
666.500   1.814e001
666.600   1.815e001
666.700   1.815e001
666.800   1.816e001
666.900   1.816e001
667.000   1.817e001
667.100   1.817e001
667.200   1.818e001
667.300   1.818e001
667.400   1.819e001
667.500   1.819e001
667.600   1.820e001
667.700   1.820e001
667.800   1.821e001
667.900   1.821e001
668.000   1.822e001
668.100   1.822e001
668.200   1.823e001
668.300   1.823e001
668.400   1.824e001
668.500   1.824e001
668.600   1.825e001
668.700   1.825e001
668.800   1.826e001
668.900   1.826e001
669.000   1.827e001
669.100   1.827e001
669.200   1.828e001
669.300   1.828e001
669.400   1.829e001
669.500   1.829e001
669.600   1.830e001
669.700   1.830e001
669.800   1.831e001
669.900   1.831e001
670.000   1.832e001
670.100   1.832e001
670.200   1.833e001
670.300   1.833e001
670.400   1.834e001
670.500   1.834e001
670.600   1.835e001
670.700   1.835e001
670.800   1.836e001
670.900   1.836e001
671.000   1.837e001
671.100   1.837e001
671.200   1.838e001
671.300   1.838e001
671.400   1.839e001
671.500   1.839e001
671.600   1.840e001
671.700   1.840e001
671.800   1.841e001
671.900   1.841e001
672.000   1.842e001
672.100   1.842e001
672.200   1.843e001
672.300   1.843e001
672.400   1.844e001
672.500   1.844e001
672.600   1.845e001
672.700   1.845e001
672.800   1.846e001
672.900   1.846e001
673.000   1.847e001
673.100   1.847e001
673.200   1.848e001
673.300   1.848e001
673.400   1.849e001
673.500   1.849e001
673.600   1.849e001
673.700   1.850e001
673.800   1.850e001
673.900   1.851e001
674.000   1.851e001
674.100   1.852e001
674.200   1.852e001
674.300   1.853e001
674.400   1.853e001
674.500   1.854e001
674.600   1.854e001
674.700   1.855e001
674.800   1.855e001
674.900   1.856e001
675.000   1.856e001
675.100   1.857e001
675.200   1.857e001
675.300   1.858e001
675.400   1.858e001
675.500   1.859e001
675.600   1.859e001
675.700   1.860e001
675.800   1.860e001
675.900   1.861e001
676.000   1.861e001
676.100   1.862e001
676.200   1.862e001
676.300   1.863e001
676.400   1.863e001
676.500   1.864e001
676.600   1.864e001
676.700   1.864e001
676.800   1.865e001
676.900   1.865e001
677.000   1.866e001
677.100   1.866e001
677.200   1.867e001
677.300   1.867e001
677.400   1.868e001
677.500   1.868e001
677.600   1.869e001
677.700   1.869e001
677.800   1.870e001
677.900   1.870e001
678.000   1.871e001
678.100   1.871e001
678.200   1.872e001
678.300   1.872e001
678.400   1.873e001
678.500   1.873e001
678.600   1.874e001
678.700   1.874e001
678.800   1.874e001
678.900   1.875e001
679.000   1.875e001
679.100   1.876e001
679.200   1.876e001
679.300   1.877e001
679.400   1.877e001
679.500   1.878e001
679.600   1.878e001
679.700   1.879e001
679.800   1.879e001
679.900   1.880e001
680.000   1.880e001
680.100   1.881e001
680.200   1.881e001
680.300   1.882e001
680.400   1.882e001
680.500   1.883e001
680.600   1.883e001
680.700   1.883e001
680.800   1.884e001
680.900   1.884e001
681.000   1.885e001
681.100   1.885e001
681.200   1.886e001
681.300   1.886e001
681.400   1.887e001
681.500   1.887e001
681.600   1.888e001
681.700   1.888e001
681.800   1.889e001
681.900   1.889e001
682.000   1.890e001
682.100   1.890e001
682.200   1.890e001
682.300   1.891e001
682.400   1.891e001
682.500   1.892e001
682.600   1.892e001
682.700   1.893e001
682.800   1.893e001
682.900   1.894e001
683.000   1.894e001
683.100   1.895e001
683.200   1.895e001
683.300   1.896e001
683.400   1.896e001
683.500   1.897e001
683.600   1.897e001
683.700   1.897e001
683.800   1.898e001
683.900   1.898e001
684.000   1.899e001
684.100   1.899e001
684.200   1.900e001
684.300   1.900e001
684.400   1.901e001
684.500   1.901e001
684.600   1.902e001
684.700   1.902e001
684.800   1.903e001
684.900   1.903e001
685.000   1.903e001
685.100   1.904e001
685.200   1.904e001
685.300   1.905e001
685.400   1.905e001
685.500   1.906e001
685.600   1.906e001
685.700   1.907e001
685.800   1.907e001
685.900   1.908e001
686.000   1.908e001
686.100   1.909e001
686.200   1.909e001
686.300   1.909e001
686.400   1.910e001
686.500   1.910e001
686.600   1.911e001
686.700   1.911e001
686.800   1.912e001
686.900   1.912e001
687.000   1.913e001
687.100   1.913e001
687.200   1.914e001
687.300   1.914e001
687.400   1.914e001
687.500   1.915e001
687.600   1.915e001
687.700   1.916e001
687.800   1.916e001
687.900   1.917e001
688.000   1.917e001
688.100   1.918e001
688.200   1.918e001
688.300   1.919e001
688.400   1.919e001
688.500   1.919e001
688.600   1.920e001
688.700   1.920e001
688.800   1.921e001
688.900   1.921e001
689.000   1.922e001
689.100   1.922e001
689.200   1.923e001
689.300   1.923e001
689.400   1.924e001
689.500   1.924e001
689.600   1.924e001
689.700   1.925e001
689.800   1.925e001
689.900   1.926e001
690.000   1.926e001
690.100   1.927e001
690.200   1.927e001
690.300   1.928e001
690.400   1.928e001
690.500   1.928e001
690.600   1.929e001
690.700   1.929e001
690.800   1.930e001
690.900   1.930e001
691.000   1.931e001
691.100   1.931e001
691.200   1.932e001
691.300   1.932e001
691.400   1.933e001
691.500   1.933e001
691.600   1.933e001
691.700   1.934e001
691.800   1.934e001
691.900   1.935e001
692.000   1.935e001
692.100   1.936e001
692.200   1.936e001
692.300   1.937e001
692.400   1.937e001
692.500   1.937e001
692.600   1.938e001
692.700   1.938e001
692.800   1.939e001
692.900   1.939e001
693.000   1.940e001
693.100   1.940e001
693.200   1.941e001
693.300   1.941e001
693.400   1.941e001
693.500   1.942e001
693.600   1.942e001
693.700   1.943e001
693.800   1.943e001
693.900   1.944e001
694.000   1.944e001
694.100   1.945e001
694.200   1.945e001
694.300   1.945e001
694.400   1.946e001
694.500   1.946e001
694.600   1.947e001
694.700   1.947e001
694.800   1.948e001
694.900   1.948e001
695.000   1.948e001
695.100   1.949e001
695.200   1.949e001
695.300   1.950e001
695.400   1.950e001
695.500   1.951e001
695.600   1.951e001
695.700   1.952e001
695.800   1.952e001
695.900   1.952e001
696.000   1.953e001
696.100   1.953e001
696.200   1.954e001
696.300   1.954e001
696.400   1.955e001
696.500   1.955e001
696.600   1.955e001
696.700   1.956e001
696.800   1.956e001
696.900   1.957e001
697.000   1.957e001
697.100   1.958e001
697.200   1.958e001
697.300   1.958e001
697.400   1.959e001
697.500   1.959e001
697.600   1.960e001
697.700   1.960e001
697.800   1.961e001
697.900   1.961e001
698.000   1.961e001
698.100   1.962e001
698.200   1.962e001
698.300   1.963e001
698.400   1.963e001
698.500   1.964e001
698.600   1.964e001
698.700   1.964e001
698.800   1.965e001
698.900   1.965e001
699.000   1.966e001
699.100   1.966e001
699.200   1.967e001
699.300   1.967e001
699.400   1.967e001
699.500   1.968e001
699.600   1.968e001
699.700   1.969e001
699.800   1.969e001
699.900   1.970e001
700.000   1.970e001
700.100   1.970e001
700.200   1.971e001
700.300   1.971e001
700.400   1.972e001
700.500   1.972e001
700.600   1.973e001
700.700   1.973e001
700.800   1.973e001
700.900   1.974e001
701.000   1.974e001
701.100   1.975e001
701.200   1.975e001
701.300   1.975e001
701.400   1.976e001
701.500   1.976e001
701.600   1.977e001
701.700   1.977e001
701.800   1.978e001
701.900   1.978e001
702.000   1.978e001
702.100   1.979e001
702.200   1.979e001
702.300   1.980e001
702.400   1.980e001
702.500   1.980e001
702.600   1.981e001
702.700   1.981e001
702.800   1.982e001
702.900   1.982e001
703.000   1.983e001
703.100   1.983e001
703.200   1.983e001
703.300   1.984e001
703.400   1.984e001
703.500   1.985e001
703.600   1.985e001
703.700   1.985e001
703.800   1.986e001
703.900   1.986e001
704.000   1.987e001
704.100   1.987e001
704.200   1.987e001
704.300   1.988e001
704.400   1.988e001
704.500   1.989e001
704.600   1.989e001
704.700   1.990e001
704.800   1.990e001
704.900   1.990e001
705.000   1.991e001
705.100   1.991e001
705.200   1.992e001
705.300   1.992e001
705.400   1.992e001
705.500   1.993e001
705.600   1.993e001
705.700   1.994e001
705.800   1.994e001
705.900   1.994e001
706.000   1.995e001
706.100   1.995e001
706.200   1.996e001
706.300   1.996e001
706.400   1.996e001
706.500   1.997e001
706.600   1.997e001
706.700   1.998e001
706.800   1.998e001
706.900   1.998e001
707.000   1.999e001
707.100   1.999e001
707.200   2.000e001
707.300   2.000e001
707.400   2.000e001
707.500   2.001e001
707.600   2.001e001
707.700   2.002e001
707.800   2.002e001
707.900   2.003e001
708.000   2.003e001
708.100   2.003e001
708.200   2.004e001
708.300   2.004e001
708.400   2.005e001
708.500   2.005e001
708.600   2.005e001
708.700   2.006e001
708.800   2.006e001
708.900   2.007e001
709.000   2.007e001
709.100   2.007e001
709.200   2.008e001
709.300   2.008e001
709.400   2.008e001
709.500   2.009e001
709.600   2.009e001
709.700   2.010e001
709.800   2.010e001
709.900   2.010e001
710.000   2.011e001
710.100   2.011e001
710.200   2.012e001
710.300   2.012e001
710.400   2.012e001
710.500   2.013e001
710.600   2.013e001
710.700   2.014e001
710.800   2.014e001
710.900   2.014e001
711.000   2.015e001
711.100   2.015e001
711.200   2.016e001
711.300   2.016e001
711.400   2.016e001
711.500   2.017e001
711.600   2.017e001
711.700   2.018e001
711.800   2.018e001
711.900   2.018e001
712.000   2.019e001
712.100   2.019e001
712.200   2.020e001
712.300   2.020e001
712.400   2.020e001
712.500   2.021e001
712.600   2.021e001
712.700   2.022e001
712.800   2.022e001
712.900   2.022e001
713.000   2.023e001
713.100   2.023e001
713.200   2.023e001
713.300   2.024e001
713.400   2.024e001
713.500   2.025e001
713.600   2.025e001
713.700   2.025e001
713.800   2.026e001
713.900   2.026e001
714.000   2.027e001
714.100   2.027e001
714.200   2.027e001
714.300   2.028e001
714.400   2.028e001
714.500   2.028e001
714.600   2.029e001
714.700   2.029e001
714.800   2.030e001
714.900   2.030e001
715.000   2.030e001
715.100   2.031e001
715.200   2.031e001
715.300   2.032e001
715.400   2.032e001
715.500   2.032e001
715.600   2.033e001
715.700   2.033e001
715.800   2.033e001
715.900   2.034e001
716.000   2.034e001
716.100   2.035e001
716.200   2.035e001
716.300   2.035e001
716.400   2.036e001
716.500   2.036e001
716.600   2.037e001
716.700   2.037e001
716.800   2.037e001
716.900   2.038e001
717.000   2.038e001
717.100   2.038e001
717.200   2.039e001
717.300   2.039e001
717.400   2.040e001
717.500   2.040e001
717.600   2.040e001
717.700   2.041e001
717.800   2.041e001
717.900   2.041e001
718.000   2.042e001
718.100   2.042e001
718.200   2.043e001
718.300   2.043e001
718.400   2.043e001
718.500   2.044e001
718.600   2.044e001
718.700   2.044e001
718.800   2.045e001
718.900   2.045e001
719.000   2.046e001
719.100   2.046e001
719.200   2.046e001
719.300   2.047e001
719.400   2.047e001
719.500   2.047e001
719.600   2.048e001
719.700   2.048e001
719.800   2.049e001
719.900   2.049e001
720.000   2.049e001
720.100   2.050e001
720.200   2.050e001
720.300   2.050e001
720.400   2.051e001
720.500   2.051e001
720.600   2.052e001
720.700   2.052e001
720.800   2.052e001
720.900   2.053e001
721.000   2.053e001
721.100   2.053e001
721.200   2.054e001
721.300   2.054e001
721.400   2.055e001
721.500   2.055e001
721.600   2.055e001
721.700   2.056e001
721.800   2.056e001
721.900   2.056e001
722.000   2.057e001
722.100   2.057e001
722.200   2.057e001
722.300   2.058e001
722.400   2.058e001
722.500   2.059e001
722.600   2.059e001
722.700   2.059e001
722.800   2.060e001
722.900   2.060e001
723.000   2.060e001
723.100   2.061e001
723.200   2.061e001
723.300   2.062e001
723.400   2.062e001
723.500   2.062e001
723.600   2.063e001
723.700   2.063e001
723.800   2.063e001
723.900   2.064e001
724.000   2.064e001
724.100   2.064e001
724.200   2.065e001
724.300   2.065e001
724.400   2.066e001
724.500   2.066e001
724.600   2.066e001
724.700   2.067e001
724.800   2.067e001
724.900   2.067e001
725.000   2.068e001
725.100   2.068e001
725.200   2.068e001
725.300   2.069e001
725.400   2.069e001
725.500   2.069e001
725.600   2.070e001
725.700   2.070e001
725.800   2.071e001
725.900   2.071e001
726.000   2.071e001
726.100   2.072e001
726.200   2.072e001
726.300   2.072e001
726.400   2.073e001
726.500   2.073e001
726.600   2.073e001
726.700   2.074e001
726.800   2.074e001
726.900   2.075e001
727.000   2.075e001
727.100   2.075e001
727.200   2.076e001
727.300   2.076e001
727.400   2.076e001
727.500   2.077e001
727.600   2.077e001
727.700   2.077e001
727.800   2.078e001
727.900   2.078e001
728.000   2.078e001
728.100   2.079e001
728.200   2.079e001
728.300   2.079e001
728.400   2.080e001
728.500   2.080e001
728.600   2.081e001
728.700   2.081e001
728.800   2.081e001
728.900   2.082e001
729.000   2.082e001
729.100   2.082e001
729.200   2.083e001
729.300   2.083e001
729.400   2.083e001
729.500   2.084e001
729.600   2.084e001
729.700   2.084e001
729.800   2.085e001
729.900   2.085e001
730.000   2.085e001
730.100   2.086e001
730.200   2.086e001
730.300   2.086e001
730.400   2.087e001
730.500   2.087e001
730.600   2.088e001
730.700   2.088e001
730.800   2.088e001
730.900   2.089e001
731.000   2.089e001
731.100   2.089e001
731.200   2.090e001
731.300   2.090e001
731.400   2.090e001
731.500   2.091e001
731.600   2.091e001
731.700   2.091e001
731.800   2.092e001
731.900   2.092e001
732.000   2.092e001
732.100   2.093e001
732.200   2.093e001
732.300   2.093e001
732.400   2.094e001
732.500   2.094e001
732.600   2.094e001
732.700   2.095e001
732.800   2.095e001
732.900   2.095e001
733.000   2.096e001
733.100   2.096e001
733.200   2.097e001
733.300   2.097e001
733.400   2.097e001
733.500   2.098e001
733.600   2.098e001
733.700   2.098e001
733.800   2.099e001
733.900   2.099e001
734.000   2.099e001
734.100   2.100e001
734.200   2.100e001
734.300   2.100e001
734.400   2.101e001
734.500   2.101e001
734.600   2.101e001
734.700   2.102e001
734.800   2.102e001
734.900   2.102e001
735.000   2.103e001
735.100   2.103e001
735.200   2.103e001
735.300   2.104e001
735.400   2.104e001
735.500   2.104e001
735.600   2.105e001
735.700   2.105e001
735.800   2.105e001
735.900   2.106e001
736.000   2.106e001
736.100   2.106e001
736.200   2.107e001
736.300   2.107e001
736.400   2.107e001
736.500   2.108e001
736.600   2.108e001
736.700   2.108e001
736.800   2.109e001
736.900   2.109e001
737.000   2.109e001
737.100   2.110e001
737.200   2.110e001
737.300   2.110e001
737.400   2.111e001
737.500   2.111e001
737.600   2.111e001
737.700   2.112e001
737.800   2.112e001
737.900   2.112e001
738.000   2.113e001
738.100   2.113e001
738.200   2.113e001
738.300   2.114e001
738.400   2.114e001
738.500   2.114e001
738.600   2.115e001
738.700   2.115e001
738.800   2.115e001
738.900   2.116e001
739.000   2.116e001
739.100   2.116e001
739.200   2.117e001
739.300   2.117e001
739.400   2.117e001
739.500   2.118e001
739.600   2.118e001
739.700   2.118e001
739.800   2.119e001
739.900   2.119e001
740.000   2.119e001
740.100   2.120e001
740.200   2.120e001
740.300   2.120e001
740.400   2.121e001
740.500   2.121e001
740.600   2.121e001
740.700   2.121e001
740.800   2.122e001
740.900   2.122e001
741.000   2.122e001
741.100   2.123e001
741.200   2.123e001
741.300   2.123e001
741.400   2.124e001
741.500   2.124e001
741.600   2.124e001
741.700   2.125e001
741.800   2.125e001
741.900   2.125e001
742.000   2.126e001
742.100   2.126e001
742.200   2.126e001
742.300   2.127e001
742.400   2.127e001
742.500   2.127e001
742.600   2.128e001
742.700   2.128e001
742.800   2.128e001
742.900   2.129e001
743.000   2.129e001
743.100   2.129e001
743.200   2.130e001
743.300   2.130e001
743.400   2.130e001
743.500   2.130e001
743.600   2.131e001
743.700   2.131e001
743.800   2.131e001
743.900   2.132e001
744.000   2.132e001
744.100   2.132e001
744.200   2.133e001
744.300   2.133e001
744.400   2.133e001
744.500   2.134e001
744.600   2.134e001
744.700   2.134e001
744.800   2.135e001
744.900   2.135e001
745.000   2.135e001
745.100   2.136e001
745.200   2.136e001
745.300   2.136e001
745.400   2.136e001
745.500   2.137e001
745.600   2.137e001
745.700   2.137e001
745.800   2.138e001
745.900   2.138e001
746.000   2.138e001
746.100   2.139e001
746.200   2.139e001
746.300   2.139e001
746.400   2.140e001
746.500   2.140e001
746.600   2.140e001
746.700   2.141e001
746.800   2.141e001
746.900   2.141e001
747.000   2.141e001
747.100   2.142e001
747.200   2.142e001
747.300   2.142e001
747.400   2.143e001
747.500   2.143e001
747.600   2.143e001
747.700   2.144e001
747.800   2.144e001
747.900   2.144e001
748.000   2.145e001
748.100   2.145e001
748.200   2.145e001
748.300   2.145e001
748.400   2.146e001
748.500   2.146e001
748.600   2.146e001
748.700   2.147e001
748.800   2.147e001
748.900   2.147e001
749.000   2.148e001
749.100   2.148e001
749.200   2.148e001
749.300   2.149e001
749.400   2.149e001
749.500   2.149e001
749.600   2.149e001
749.700   2.150e001
749.800   2.150e001
749.900   2.150e001
750.000   2.151e001
750.100   2.151e001
750.200   2.151e001
750.300   2.152e001
750.400   2.152e001
750.500   2.152e001
750.600   2.153e001
750.700   2.153e001
750.800   2.153e001
750.900   2.153e001
751.000   2.154e001
751.100   2.154e001
751.200   2.154e001
751.300   2.155e001
751.400   2.155e001
751.500   2.155e001
751.600   2.156e001
751.700   2.156e001
751.800   2.156e001
751.900   2.156e001
752.000   2.157e001
752.100   2.157e001
752.200   2.157e001
752.300   2.158e001
752.400   2.158e001
752.500   2.158e001
752.600   2.159e001
752.700   2.159e001
752.800   2.159e001
752.900   2.159e001
753.000   2.160e001
753.100   2.160e001
753.200   2.160e001
753.300   2.161e001
753.400   2.161e001
753.500   2.161e001
753.600   2.161e001
753.700   2.162e001
753.800   2.162e001
753.900   2.162e001
754.000   2.163e001
754.100   2.163e001
754.200   2.163e001
754.300   2.164e001
754.400   2.164e001
754.500   2.164e001
754.600   2.164e001
754.700   2.165e001
754.800   2.165e001
754.900   2.165e001
755.000   2.166e001
755.100   2.166e001
755.200   2.166e001
755.300   2.166e001
755.400   2.167e001
755.500   2.167e001
755.600   2.167e001
755.700   2.168e001
755.800   2.168e001
755.900   2.168e001
756.000   2.168e001
756.100   2.169e001
756.200   2.169e001
756.300   2.169e001
756.400   2.170e001
756.500   2.170e001
756.600   2.170e001
756.700   2.171e001
756.800   2.171e001
756.900   2.171e001
757.000   2.171e001
757.100   2.172e001
757.200   2.172e001
757.300   2.172e001
757.400   2.173e001
757.500   2.173e001
757.600   2.173e001
757.700   2.173e001
757.800   2.174e001
757.900   2.174e001
758.000   2.174e001
758.100   2.175e001
758.200   2.175e001
758.300   2.175e001
758.400   2.175e001
758.500   2.176e001
758.600   2.176e001
758.700   2.176e001
758.800   2.177e001
758.900   2.177e001
759.000   2.177e001
759.100   2.177e001
759.200   2.178e001
759.300   2.178e001
759.400   2.178e001
759.500   2.178e001
759.600   2.179e001
759.700   2.179e001
759.800   2.179e001
759.900   2.180e001
760.000   2.180e001
760.100   2.180e001
760.200   2.180e001
760.300   2.181e001
760.400   2.181e001
760.500   2.181e001
760.600   2.182e001
760.700   2.182e001
760.800   2.182e001
760.900   2.182e001
761.000   2.183e001
761.100   2.183e001
761.200   2.183e001
761.300   2.184e001
761.400   2.184e001
761.500   2.184e001
761.600   2.184e001
761.700   2.185e001
761.800   2.185e001
761.900   2.185e001
762.000   2.185e001
762.100   2.186e001
762.200   2.186e001
762.300   2.186e001
762.400   2.187e001
762.500   2.187e001
762.600   2.187e001
762.700   2.187e001
762.800   2.188e001
762.900   2.188e001
763.000   2.188e001
763.100   2.189e001
763.200   2.189e001
763.300   2.189e001
763.400   2.189e001
763.500   2.190e001
763.600   2.190e001
763.700   2.190e001
763.800   2.190e001
763.900   2.191e001
764.000   2.191e001
764.100   2.191e001
764.200   2.192e001
764.300   2.192e001
764.400   2.192e001
764.500   2.192e001
764.600   2.193e001
764.700   2.193e001
764.800   2.193e001
764.900   2.193e001
765.000   2.194e001
765.100   2.194e001
765.200   2.194e001
765.300   2.194e001
765.400   2.195e001
765.500   2.195e001
765.600   2.195e001
765.700   2.196e001
765.800   2.196e001
765.900   2.196e001
766.000   2.196e001
766.100   2.197e001
766.200   2.197e001
766.300   2.197e001
766.400   2.197e001
766.500   2.198e001
766.600   2.198e001
766.700   2.198e001
766.800   2.199e001
766.900   2.199e001
767.000   2.199e001
767.100   2.199e001
767.200   2.200e001
767.300   2.200e001
767.400   2.200e001
767.500   2.200e001
767.600   2.201e001
767.700   2.201e001
767.800   2.201e001
767.900   2.201e001
768.000   2.202e001
768.100   2.202e001
768.200   2.202e001
768.300   2.202e001
768.400   2.203e001
768.500   2.203e001
768.600   2.203e001
768.700   2.204e001
768.800   2.204e001
768.900   2.204e001
769.000   2.204e001
769.100   2.205e001
769.200   2.205e001
769.300   2.205e001
769.400   2.205e001
769.500   2.206e001
769.600   2.206e001
769.700   2.206e001
769.800   2.206e001
769.900   2.207e001
770.000   2.207e001
770.100   2.207e001
770.200   2.207e001
770.300   2.208e001
770.400   2.208e001
770.500   2.208e001
770.600   2.208e001
770.700   2.209e001
770.800   2.209e001
770.900   2.209e001
771.000   2.209e001
771.100   2.210e001
771.200   2.210e001
771.300   2.210e001
771.400   2.211e001
771.500   2.211e001
771.600   2.211e001
771.700   2.211e001
771.800   2.212e001
771.900   2.212e001
772.000   2.212e001
772.100   2.212e001
772.200   2.213e001
772.300   2.213e001
772.400   2.213e001
772.500   2.213e001
772.600   2.214e001
772.700   2.214e001
772.800   2.214e001
772.900   2.214e001
773.000   2.215e001
773.100   2.215e001
773.200   2.215e001
773.300   2.215e001
773.400   2.216e001
773.500   2.216e001
773.600   2.216e001
773.700   2.216e001
773.800   2.217e001
773.900   2.217e001
774.000   2.217e001
774.100   2.217e001
774.200   2.218e001
774.300   2.218e001
774.400   2.218e001
774.500   2.218e001
774.600   2.219e001
774.700   2.219e001
774.800   2.219e001
774.900   2.219e001
775.000   2.220e001
775.100   2.220e001
775.200   2.220e001
775.300   2.220e001
775.400   2.221e001
775.500   2.221e001
775.600   2.221e001
775.700   2.221e001
775.800   2.222e001
775.900   2.222e001
776.000   2.222e001
776.100   2.222e001
776.200   2.223e001
776.300   2.223e001
776.400   2.223e001
776.500   2.223e001
776.600   2.224e001
776.700   2.224e001
776.800   2.224e001
776.900   2.224e001
777.000   2.225e001
777.100   2.225e001
777.200   2.225e001
777.300   2.225e001
777.400   2.225e001
777.500   2.226e001
777.600   2.226e001
777.700   2.226e001
777.800   2.226e001
777.900   2.227e001
778.000   2.227e001
778.100   2.227e001
778.200   2.227e001
778.300   2.228e001
778.400   2.228e001
778.500   2.228e001
778.600   2.228e001
778.700   2.229e001
778.800   2.229e001
778.900   2.229e001
779.000   2.229e001
779.100   2.230e001
779.200   2.230e001
779.300   2.230e001
779.400   2.230e001
779.500   2.231e001
779.600   2.231e001
779.700   2.231e001
779.800   2.231e001
779.900   2.231e001
780.000   2.232e001
780.100   2.232e001
780.200   2.232e001
780.300   2.232e001
780.400   2.233e001
780.500   2.233e001
780.600   2.233e001
780.700   2.233e001
780.800   2.234e001
780.900   2.234e001
781.000   2.234e001
781.100   2.234e001
781.200   2.235e001
781.300   2.235e001
781.400   2.235e001
781.500   2.235e001
781.600   2.235e001
781.700   2.236e001
781.800   2.236e001
781.900   2.236e001
782.000   2.236e001
782.100   2.237e001
782.200   2.237e001
782.300   2.237e001
782.400   2.237e001
782.500   2.238e001
782.600   2.238e001
782.700   2.238e001
782.800   2.238e001
782.900   2.239e001
783.000   2.239e001
783.100   2.239e001
783.200   2.239e001
783.300   2.239e001
783.400   2.240e001
783.500   2.240e001
783.600   2.240e001
783.700   2.240e001
783.800   2.241e001
783.900   2.241e001
784.000   2.241e001
784.100   2.241e001
784.200   2.242e001
784.300   2.242e001
784.400   2.242e001
784.500   2.242e001
784.600   2.242e001
784.700   2.243e001
784.800   2.243e001
784.900   2.243e001
785.000   2.243e001
785.100   2.244e001
785.200   2.244e001
785.300   2.244e001
785.400   2.244e001
785.500   2.244e001
785.600   2.245e001
785.700   2.245e001
785.800   2.245e001
785.900   2.245e001
786.000   2.246e001
786.100   2.246e001
786.200   2.246e001
786.300   2.246e001
786.400   2.246e001
786.500   2.247e001
786.600   2.247e001
786.700   2.247e001
786.800   2.247e001
786.900   2.248e001
787.000   2.248e001
787.100   2.248e001
787.200   2.248e001
787.300   2.248e001
787.400   2.249e001
787.500   2.249e001
787.600   2.249e001
787.700   2.249e001
787.800   2.250e001
787.900   2.250e001
788.000   2.250e001
788.100   2.250e001
788.200   2.250e001
788.300   2.251e001
788.400   2.251e001
788.500   2.251e001
788.600   2.251e001
788.700   2.252e001
788.800   2.252e001
788.900   2.252e001
789.000   2.252e001
789.100   2.252e001
789.200   2.253e001
789.300   2.253e001
789.400   2.253e001
789.500   2.253e001
789.600   2.254e001
789.700   2.254e001
789.800   2.254e001
789.900   2.254e001
790.000   2.254e001
790.100   2.255e001
790.200   2.255e001
790.300   2.255e001
790.400   2.255e001
790.500   2.255e001
790.600   2.256e001
790.700   2.256e001
790.800   2.256e001
790.900   2.256e001
791.000   2.257e001
791.100   2.257e001
791.200   2.257e001
791.300   2.257e001
791.400   2.257e001
791.500   2.258e001
791.600   2.258e001
791.700   2.258e001
791.800   2.258e001
791.900   2.258e001
792.000   2.259e001
792.100   2.259e001
792.200   2.259e001
792.300   2.259e001
792.400   2.260e001
792.500   2.260e001
792.600   2.260e001
792.700   2.260e001
792.800   2.260e001
792.900   2.261e001
793.000   2.261e001
793.100   2.261e001
793.200   2.261e001
793.300   2.261e001
793.400   2.262e001
793.500   2.262e001
793.600   2.262e001
793.700   2.262e001
793.800   2.263e001
793.900   2.263e001
794.000   2.263e001
794.100   2.263e001
794.200   2.263e001
794.300   2.264e001
794.400   2.264e001
794.500   2.264e001
794.600   2.264e001
794.700   2.264e001
794.800   2.265e001
794.900   2.265e001
795.000   2.265e001
795.100   2.265e001
795.200   2.265e001
795.300   2.266e001
795.400   2.266e001
795.500   2.266e001
795.600   2.266e001
795.700   2.266e001
795.800   2.267e001
795.900   2.267e001
796.000   2.267e001
796.100   2.267e001
796.200   2.267e001
796.300   2.268e001
796.400   2.268e001
796.500   2.268e001
796.600   2.268e001
796.700   2.268e001
796.800   2.269e001
796.900   2.269e001
797.000   2.269e001
797.100   2.269e001
797.200   2.269e001
797.300   2.270e001
797.400   2.270e001
797.500   2.270e001
797.600   2.270e001
797.700   2.270e001
797.800   2.271e001
797.900   2.271e001
798.000   2.271e001
798.100   2.271e001
798.200   2.271e001
798.300   2.272e001
798.400   2.272e001
798.500   2.272e001
798.600   2.272e001
798.700   2.272e001
798.800   2.273e001
798.900   2.273e001
799.000   2.273e001
799.100   2.273e001
799.200   2.273e001
799.300   2.274e001
799.400   2.274e001
799.500   2.274e001
799.600   2.274e001
799.700   2.274e001
799.800   2.275e001
799.900   2.275e001
800.000   2.275e001
800.100   2.275e001
800.200   2.275e001
800.300   2.276e001
800.400   2.276e001
800.500   2.276e001
800.600   2.276e001
800.700   2.276e001
800.800   2.277e001
800.900   2.277e001
801.000   2.277e001
801.100   2.277e001
801.200   2.277e001
801.300   2.278e001
801.400   2.278e001
801.500   2.278e001
801.600   2.278e001
801.700   2.278e001
801.800   2.278e001
801.900   2.279e001
802.000   2.279e001
802.100   2.279e001
802.200   2.279e001
802.300   2.279e001
802.400   2.280e001
802.500   2.280e001
802.600   2.280e001
802.700   2.280e001
802.800   2.280e001
802.900   2.281e001
803.000   2.281e001
803.100   2.281e001
803.200   2.281e001
803.300   2.281e001
803.400   2.281e001
803.500   2.282e001
803.600   2.282e001
803.700   2.282e001
803.800   2.282e001
803.900   2.282e001
804.000   2.283e001
804.100   2.283e001
804.200   2.283e001
804.300   2.283e001
804.400   2.283e001
804.500   2.284e001
804.600   2.284e001
804.700   2.284e001
804.800   2.284e001
804.900   2.284e001
805.000   2.284e001
805.100   2.285e001
805.200   2.285e001
805.300   2.285e001
805.400   2.285e001
805.500   2.285e001
805.600   2.286e001
805.700   2.286e001
805.800   2.286e001
805.900   2.286e001
806.000   2.286e001
806.100   2.286e001
806.200   2.287e001
806.300   2.287e001
806.400   2.287e001
806.500   2.287e001
806.600   2.287e001
806.700   2.288e001
806.800   2.288e001
806.900   2.288e001
807.000   2.288e001
807.100   2.288e001
807.200   2.288e001
807.300   2.289e001
807.400   2.289e001
807.500   2.289e001
807.600   2.289e001
807.700   2.289e001
807.800   2.289e001
807.900   2.290e001
808.000   2.290e001
808.100   2.290e001
808.200   2.290e001
808.300   2.290e001
808.400   2.291e001
808.500   2.291e001
808.600   2.291e001
808.700   2.291e001
808.800   2.291e001
808.900   2.291e001
809.000   2.292e001
809.100   2.292e001
809.200   2.292e001
809.300   2.292e001
809.400   2.292e001
809.500   2.292e001
809.600   2.293e001
809.700   2.293e001
809.800   2.293e001
809.900   2.293e001
810.000   2.293e001
810.100   2.294e001
810.200   2.294e001
810.300   2.294e001
810.400   2.294e001
810.500   2.294e001
810.600   2.294e001
810.700   2.295e001
810.800   2.295e001
810.900   2.295e001
811.000   2.295e001
811.100   2.295e001
811.200   2.295e001
811.300   2.296e001
811.400   2.296e001
811.500   2.296e001
811.600   2.296e001
811.700   2.296e001
811.800   2.296e001
811.900   2.297e001
812.000   2.297e001
812.100   2.297e001
812.200   2.297e001
812.300   2.297e001
812.400   2.297e001
812.500   2.298e001
812.600   2.298e001
812.700   2.298e001
812.800   2.298e001
812.900   2.298e001
813.000   2.298e001
813.100   2.299e001
813.200   2.299e001
813.300   2.299e001
813.400   2.299e001
813.500   2.299e001
813.600   2.299e001
813.700   2.300e001
813.800   2.300e001
813.900   2.300e001
814.000   2.300e001
814.100   2.300e001
814.200   2.300e001
814.300   2.301e001
814.400   2.301e001
814.500   2.301e001
814.600   2.301e001
814.700   2.301e001
814.800   2.301e001
814.900   2.302e001
815.000   2.302e001
815.100   2.302e001
815.200   2.302e001
815.300   2.302e001
815.400   2.302e001
815.500   2.303e001
815.600   2.303e001
815.700   2.303e001
815.800   2.303e001
815.900   2.303e001
816.000   2.303e001
816.100   2.304e001
816.200   2.304e001
816.300   2.304e001
816.400   2.304e001
816.500   2.304e001
816.600   2.304e001
816.700   2.304e001
816.800   2.305e001
816.900   2.305e001
817.000   2.305e001
817.100   2.305e001
817.200   2.305e001
817.300   2.305e001
817.400   2.306e001
817.500   2.306e001
817.600   2.306e001
817.700   2.306e001
817.800   2.306e001
817.900   2.306e001
818.000   2.307e001
818.100   2.307e001
818.200   2.307e001
818.300   2.307e001
818.400   2.307e001
818.500   2.307e001
818.600   2.307e001
818.700   2.308e001
818.800   2.308e001
818.900   2.308e001
819.000   2.308e001
819.100   2.308e001
819.200   2.308e001
819.300   2.309e001
819.400   2.309e001
819.500   2.309e001
819.600   2.309e001
819.700   2.309e001
819.800   2.309e001
819.900   2.309e001
820.000   2.310e001
820.100   2.310e001
820.200   2.310e001
820.300   2.310e001
820.400   2.310e001
820.500   2.310e001
820.600   2.311e001
820.700   2.311e001
820.800   2.311e001
820.900   2.311e001
821.000   2.311e001
821.100   2.311e001
821.200   2.311e001
821.300   2.312e001
821.400   2.312e001
821.500   2.312e001
821.600   2.312e001
821.700   2.312e001
821.800   2.312e001
821.900   2.313e001
822.000   2.313e001
822.100   2.313e001
822.200   2.313e001
822.300   2.313e001
822.400   2.313e001
822.500   2.313e001
822.600   2.314e001
822.700   2.314e001
822.800   2.314e001
822.900   2.314e001
823.000   2.314e001
823.100   2.314e001
823.200   2.314e001
823.300   2.315e001
823.400   2.315e001
823.500   2.315e001
823.600   2.315e001
823.700   2.315e001
823.800   2.315e001
823.900   2.315e001
824.000   2.316e001
824.100   2.316e001
824.200   2.316e001
824.300   2.316e001
824.400   2.316e001
824.500   2.316e001
824.600   2.316e001
824.700   2.317e001
824.800   2.317e001
824.900   2.317e001
825.000   2.317e001
825.100   2.317e001
825.200   2.317e001
825.300   2.317e001
825.400   2.318e001
825.500   2.318e001
825.600   2.318e001
825.700   2.318e001
825.800   2.318e001
825.900   2.318e001
826.000   2.318e001
826.100   2.319e001
826.200   2.319e001
826.300   2.319e001
826.400   2.319e001
826.500   2.319e001
826.600   2.319e001
826.700   2.319e001
826.800   2.320e001
826.900   2.320e001
827.000   2.320e001
827.100   2.320e001
827.200   2.320e001
827.300   2.320e001
827.400   2.320e001
827.500   2.321e001
827.600   2.321e001
827.700   2.321e001
827.800   2.321e001
827.900   2.321e001
828.000   2.321e001
828.100   2.321e001
828.200   2.322e001
828.300   2.322e001
828.400   2.322e001
828.500   2.322e001
828.600   2.322e001
828.700   2.322e001
828.800   2.322e001
828.900   2.323e001
829.000   2.323e001
829.100   2.323e001
829.200   2.323e001
829.300   2.323e001
829.400   2.323e001
829.500   2.323e001
829.600   2.323e001
829.700   2.324e001
829.800   2.324e001
829.900   2.324e001
830.000   2.324e001
830.100   2.324e001
830.200   2.324e001
830.300   2.324e001
830.400   2.325e001
830.500   2.325e001
830.600   2.325e001
830.700   2.325e001
830.800   2.325e001
830.900   2.325e001
831.000   2.325e001
831.100   2.325e001
831.200   2.326e001
831.300   2.326e001
831.400   2.326e001
831.500   2.326e001
831.600   2.326e001
831.700   2.326e001
831.800   2.326e001
831.900   2.327e001
832.000   2.327e001
832.100   2.327e001
832.200   2.327e001
832.300   2.327e001
832.400   2.327e001
832.500   2.327e001
832.600   2.327e001
832.700   2.328e001
832.800   2.328e001
832.900   2.328e001
833.000   2.328e001
833.100   2.328e001
833.200   2.328e001
833.300   2.328e001
833.400   2.328e001
833.500   2.329e001
833.600   2.329e001
833.700   2.329e001
833.800   2.329e001
833.900   2.329e001
834.000   2.329e001
834.100   2.329e001
834.200   2.329e001
834.300   2.330e001
834.400   2.330e001
834.500   2.330e001
834.600   2.330e001
834.700   2.330e001
834.800   2.330e001
834.900   2.330e001
835.000   2.330e001
835.100   2.331e001
835.200   2.331e001
835.300   2.331e001
835.400   2.331e001
835.500   2.331e001
835.600   2.331e001
835.700   2.331e001
835.800   2.331e001
835.900   2.332e001
836.000   2.332e001
836.100   2.332e001
836.200   2.332e001
836.300   2.332e001
836.400   2.332e001
836.500   2.332e001
836.600   2.332e001
836.700   2.333e001
836.800   2.333e001
836.900   2.333e001
837.000   2.333e001
837.100   2.333e001
837.200   2.333e001
837.300   2.333e001
837.400   2.333e001
837.500   2.334e001
837.600   2.334e001
837.700   2.334e001
837.800   2.334e001
837.900   2.334e001
838.000   2.334e001
838.100   2.334e001
838.200   2.334e001
838.300   2.334e001
838.400   2.335e001
838.500   2.335e001
838.600   2.335e001
838.700   2.335e001
838.800   2.335e001
838.900   2.335e001
839.000   2.335e001
839.100   2.335e001
839.200   2.336e001
839.300   2.336e001
839.400   2.336e001
839.500   2.336e001
839.600   2.336e001
839.700   2.336e001
839.800   2.336e001
839.900   2.336e001
840.000   2.336e001
840.100   2.337e001
840.200   2.337e001
840.300   2.337e001
840.400   2.337e001
840.500   2.337e001
840.600   2.337e001
840.700   2.337e001
840.800   2.337e001
840.900   2.337e001
841.000   2.338e001
841.100   2.338e001
841.200   2.338e001
841.300   2.338e001
841.400   2.338e001
841.500   2.338e001
841.600   2.338e001
841.700   2.338e001
841.800   2.339e001
841.900   2.339e001
842.000   2.339e001
842.100   2.339e001
842.200   2.339e001
842.300   2.339e001
842.400   2.339e001
842.500   2.339e001
842.600   2.339e001
842.700   2.340e001
842.800   2.340e001
842.900   2.340e001
843.000   2.340e001
843.100   2.340e001
843.200   2.340e001
843.300   2.340e001
843.400   2.340e001
843.500   2.340e001
843.600   2.340e001
843.700   2.341e001
843.800   2.341e001
843.900   2.341e001
844.000   2.341e001
844.100   2.341e001
844.200   2.341e001
844.300   2.341e001
844.400   2.341e001
844.500   2.341e001
844.600   2.342e001
844.700   2.342e001
844.800   2.342e001
844.900   2.342e001
845.000   2.342e001
845.100   2.342e001
845.200   2.342e001
845.300   2.342e001
845.400   2.342e001
845.500   2.343e001
845.600   2.343e001
845.700   2.343e001
845.800   2.343e001
845.900   2.343e001
846.000   2.343e001
846.100   2.343e001
846.200   2.343e001
846.300   2.343e001
846.400   2.343e001
846.500   2.344e001
846.600   2.344e001
846.700   2.344e001
846.800   2.344e001
846.900   2.344e001
847.000   2.344e001
847.100   2.344e001
847.200   2.344e001
847.300   2.344e001
847.400   2.344e001
847.500   2.345e001
847.600   2.345e001
847.700   2.345e001
847.800   2.345e001
847.900   2.345e001
848.000   2.345e001
848.100   2.345e001
848.200   2.345e001
848.300   2.345e001
848.400   2.345e001
848.500   2.346e001
848.600   2.346e001
848.700   2.346e001
848.800   2.346e001
848.900   2.346e001
849.000   2.346e001
849.100   2.346e001
849.200   2.346e001
849.300   2.346e001
849.400   2.346e001
849.500   2.347e001
849.600   2.347e001
849.700   2.347e001
849.800   2.347e001
849.900   2.347e001
850.000   2.347e001
850.100   2.347e001
850.200   2.347e001
850.300   2.347e001
850.400   2.347e001
850.500   2.348e001
850.600   2.348e001
850.700   2.348e001
850.800   2.348e001
850.900   2.348e001
851.000   2.348e001
851.100   2.348e001
851.200   2.348e001
851.300   2.348e001
851.400   2.348e001
851.500   2.348e001
851.600   2.349e001
851.700   2.349e001
851.800   2.349e001
851.900   2.349e001
852.000   2.349e001
852.100   2.349e001
852.200   2.349e001
852.300   2.349e001
852.400   2.349e001
852.500   2.349e001
852.600   2.350e001
852.700   2.350e001
852.800   2.350e001
852.900   2.350e001
853.000   2.350e001
853.100   2.350e001
853.200   2.350e001
853.300   2.350e001
853.400   2.350e001
853.500   2.350e001
853.600   2.350e001
853.700   2.351e001
853.800   2.351e001
853.900   2.351e001
854.000   2.351e001
854.100   2.351e001
854.200   2.351e001
854.300   2.351e001
854.400   2.351e001
854.500   2.351e001
854.600   2.351e001
854.700   2.351e001
854.800   2.352e001
854.900   2.352e001
855.000   2.352e001
855.100   2.352e001
855.200   2.352e001
855.300   2.352e001
855.400   2.352e001
855.500   2.352e001
855.600   2.352e001
855.700   2.352e001
855.800   2.352e001
855.900   2.352e001
856.000   2.353e001
856.100   2.353e001
856.200   2.353e001
856.300   2.353e001
856.400   2.353e001
856.500   2.353e001
856.600   2.353e001
856.700   2.353e001
856.800   2.353e001
856.900   2.353e001
857.000   2.353e001
857.100   2.353e001
857.200   2.354e001
857.300   2.354e001
857.400   2.354e001
857.500   2.354e001
857.600   2.354e001
857.700   2.354e001
857.800   2.354e001
857.900   2.354e001
858.000   2.354e001
858.100   2.354e001
858.200   2.354e001
858.300   2.354e001
858.400   2.355e001
858.500   2.355e001
858.600   2.355e001
858.700   2.355e001
858.800   2.355e001
858.900   2.355e001
859.000   2.355e001
859.100   2.355e001
859.200   2.355e001
859.300   2.355e001
859.400   2.355e001
859.500   2.355e001
859.600   2.356e001
859.700   2.356e001
859.800   2.356e001
859.900   2.356e001
860.000   2.356e001
860.100   2.356e001
860.200   2.356e001
860.300   2.356e001
860.400   2.356e001
860.500   2.356e001
860.600   2.356e001
860.700   2.356e001
860.800   2.356e001
860.900   2.357e001
861.000   2.357e001
861.100   2.357e001
861.200   2.357e001
861.300   2.357e001
861.400   2.357e001
861.500   2.357e001
861.600   2.357e001
861.700   2.357e001
861.800   2.357e001
861.900   2.357e001
862.000   2.357e001
862.100   2.357e001
862.200   2.358e001
862.300   2.358e001
862.400   2.358e001
862.500   2.358e001
862.600   2.358e001
862.700   2.358e001
862.800   2.358e001
862.900   2.358e001
863.000   2.358e001
863.100   2.358e001
863.200   2.358e001
863.300   2.358e001
863.400   2.358e001
863.500   2.359e001
863.600   2.359e001
863.700   2.359e001
863.800   2.359e001
863.900   2.359e001
864.000   2.359e001
864.100   2.359e001
864.200   2.359e001
864.300   2.359e001
864.400   2.359e001
864.500   2.359e001
864.600   2.359e001
864.700   2.359e001
864.800   2.359e001
864.900   2.360e001
865.000   2.360e001
865.100   2.360e001
865.200   2.360e001
865.300   2.360e001
865.400   2.360e001
865.500   2.360e001
865.600   2.360e001
865.700   2.360e001
865.800   2.360e001
865.900   2.360e001
866.000   2.360e001
866.100   2.360e001
866.200   2.360e001
866.300   2.360e001
866.400   2.361e001
866.500   2.361e001
866.600   2.361e001
866.700   2.361e001
866.800   2.361e001
866.900   2.361e001
867.000   2.361e001
867.100   2.361e001
867.200   2.361e001
867.300   2.361e001
867.400   2.361e001
867.500   2.361e001
867.600   2.361e001
867.700   2.361e001
867.800   2.361e001
867.900   2.362e001
868.000   2.362e001
868.100   2.362e001
868.200   2.362e001
868.300   2.362e001
868.400   2.362e001
868.500   2.362e001
868.600   2.362e001
868.700   2.362e001
868.800   2.362e001
868.900   2.362e001
869.000   2.362e001
869.100   2.362e001
869.200   2.362e001
869.300   2.362e001
869.400   2.363e001
869.500   2.363e001
869.600   2.363e001
869.700   2.363e001
869.800   2.363e001
869.900   2.363e001
870.000   2.363e001
870.100   2.363e001
870.200   2.363e001
870.300   2.363e001
870.400   2.363e001
870.500   2.363e001
870.600   2.363e001
870.700   2.363e001
870.800   2.363e001
870.900   2.363e001
871.000   2.363e001
871.100   2.364e001
871.200   2.364e001
871.300   2.364e001
871.400   2.364e001
871.500   2.364e001
871.600   2.364e001
871.700   2.364e001
871.800   2.364e001
871.900   2.364e001
872.000   2.364e001
872.100   2.364e001
872.200   2.364e001
872.300   2.364e001
872.400   2.364e001
872.500   2.364e001
872.600   2.364e001
872.700   2.364e001
872.800   2.365e001
872.900   2.365e001
873.000   2.365e001
873.100   2.365e001
873.200   2.365e001
873.300   2.365e001
873.400   2.365e001
873.500   2.365e001
873.600   2.365e001
873.700   2.365e001
873.800   2.365e001
873.900   2.365e001
874.000   2.365e001
874.100   2.365e001
874.200   2.365e001
874.300   2.365e001
874.400   2.365e001
874.500   2.365e001
874.600   2.366e001
874.700   2.366e001
874.800   2.366e001
874.900   2.366e001
875.000   2.366e001
875.100   2.366e001
875.200   2.366e001
875.300   2.366e001
875.400   2.366e001
875.500   2.366e001
875.600   2.366e001
875.700   2.366e001
875.800   2.366e001
875.900   2.366e001
876.000   2.366e001
876.100   2.366e001
876.200   2.366e001
876.300   2.366e001
876.400   2.366e001
876.500   2.367e001
876.600   2.367e001
876.700   2.367e001
876.800   2.367e001
876.900   2.367e001
877.000   2.367e001
877.100   2.367e001
877.200   2.367e001
877.300   2.367e001
877.400   2.367e001
877.500   2.367e001
877.600   2.367e001
877.700   2.367e001
877.800   2.367e001
877.900   2.367e001
878.000   2.367e001
878.100   2.367e001
878.200   2.367e001
878.300   2.367e001
878.400   2.367e001
878.500   2.368e001
878.600   2.368e001
878.700   2.368e001
878.800   2.368e001
878.900   2.368e001
879.000   2.368e001
879.100   2.368e001
879.200   2.368e001
879.300   2.368e001
879.400   2.368e001
879.500   2.368e001
879.600   2.368e001
879.700   2.368e001
879.800   2.368e001
879.900   2.368e001
880.000   2.368e001
880.100   2.368e001
880.200   2.368e001
880.300   2.368e001
880.400   2.368e001
880.500   2.368e001
880.600   2.368e001
880.700   2.369e001
880.800   2.369e001
880.900   2.369e001
881.000   2.369e001
881.100   2.369e001
881.200   2.369e001
881.300   2.369e001
881.400   2.369e001
881.500   2.369e001
881.600   2.369e001
881.700   2.369e001
881.800   2.369e001
881.900   2.369e001
882.000   2.369e001
882.100   2.369e001
882.200   2.369e001
882.300   2.369e001
882.400   2.369e001
882.500   2.369e001
882.600   2.369e001
882.700   2.369e001
882.800   2.369e001
882.900   2.369e001
883.000   2.369e001
883.100   2.370e001
883.200   2.370e001
883.300   2.370e001
883.400   2.370e001
883.500   2.370e001
883.600   2.370e001
883.700   2.370e001
883.800   2.370e001
883.900   2.370e001
884.000   2.370e001
884.100   2.370e001
884.200   2.370e001
884.300   2.370e001
884.400   2.370e001
884.500   2.370e001
884.600   2.370e001
884.700   2.370e001
884.800   2.370e001
884.900   2.370e001
885.000   2.370e001
885.100   2.370e001
885.200   2.370e001
885.300   2.370e001
885.400   2.370e001
885.500   2.370e001
885.600   2.370e001
885.700   2.371e001
885.800   2.371e001
885.900   2.371e001
886.000   2.371e001
886.100   2.371e001
886.200   2.371e001
886.300   2.371e001
886.400   2.371e001
886.500   2.371e001
886.600   2.371e001
886.700   2.371e001
886.800   2.371e001
886.900   2.371e001
887.000   2.371e001
887.100   2.371e001
887.200   2.371e001
887.300   2.371e001
887.400   2.371e001
887.500   2.371e001
887.600   2.371e001
887.700   2.371e001
887.800   2.371e001
887.900   2.371e001
888.000   2.371e001
888.100   2.371e001
888.200   2.371e001
888.300   2.371e001
888.400   2.371e001
888.500   2.371e001
888.600   2.371e001
888.700   2.372e001
888.800   2.372e001
888.900   2.372e001
889.000   2.372e001
889.100   2.372e001
889.200   2.372e001
889.300   2.372e001
889.400   2.372e001
889.500   2.372e001
889.600   2.372e001
889.700   2.372e001
889.800   2.372e001
889.900   2.372e001
890.000   2.372e001
890.100   2.372e001
890.200   2.372e001
890.300   2.372e001
890.400   2.372e001
890.500   2.372e001
890.600   2.372e001
890.700   2.372e001
890.800   2.372e001
890.900   2.372e001
891.000   2.372e001
891.100   2.372e001
891.200   2.372e001
891.300   2.372e001
891.400   2.372e001
891.500   2.372e001
891.600   2.372e001
891.700   2.372e001
891.800   2.372e001
891.900   2.372e001
892.000   2.372e001
892.100   2.373e001
892.200   2.373e001
892.300   2.373e001
892.400   2.373e001
892.500   2.373e001
892.600   2.373e001
892.700   2.373e001
892.800   2.373e001
892.900   2.373e001
893.000   2.373e001
893.100   2.373e001
893.200   2.373e001
893.300   2.373e001
893.400   2.373e001
893.500   2.373e001
893.600   2.373e001
893.700   2.373e001
893.800   2.373e001
893.900   2.373e001
894.000   2.373e001
894.100   2.373e001
894.200   2.373e001
894.300   2.373e001
894.400   2.373e001
894.500   2.373e001
894.600   2.373e001
894.700   2.373e001
894.800   2.373e001
894.900   2.373e001
895.000   2.373e001
895.100   2.373e001
895.200   2.373e001
895.300   2.373e001
895.400   2.373e001
895.500   2.373e001
895.600   2.373e001
895.700   2.373e001
895.800   2.373e001
895.900   2.373e001
896.000   2.373e001
896.100   2.373e001
896.200   2.373e001
896.300   2.373e001
896.400   2.373e001
896.500   2.373e001
896.600   2.373e001
896.700   2.374e001
896.800   2.374e001
896.900   2.374e001
897.000   2.374e001
897.100   2.374e001
897.200   2.374e001
897.300   2.374e001
897.400   2.374e001
897.500   2.374e001
897.600   2.374e001
897.700   2.374e001
897.800   2.374e001
897.900   2.374e001
898.000   2.374e001
898.100   2.374e001
898.200   2.374e001
898.300   2.374e001
898.400   2.374e001
898.500   2.374e001
898.600   2.374e001
898.700   2.374e001
898.800   2.374e001
898.900   2.374e001
899.000   2.374e001
899.100   2.374e001
899.200   2.374e001
899.300   2.374e001
899.400   2.374e001
899.500   2.374e001
899.600   2.374e001
899.700   2.374e001
899.800   2.374e001
899.900   2.374e001
900.000   2.374e001
900.100   2.374e001
900.200   2.374e001
900.300   2.374e001
900.400   2.374e001
900.500   2.374e001
900.600   2.374e001
900.700   2.374e001
900.800   2.374e001
900.900   2.374e001
901.000   2.374e001
901.100   2.374e001
901.200   2.374e001
901.300   2.374e001
901.400   2.374e001
901.500   2.374e001
901.600   2.374e001
901.700   2.374e001
901.800   2.374e001
901.900   2.374e001
902.000   2.374e001
902.100   2.374e001
902.200   2.374e001
902.300   2.374e001
902.400   2.374e001
902.500   2.374e001
902.600   2.374e001
902.700   2.374e001
902.800   2.374e001
902.900   2.374e001
903.000   2.374e001
903.100   2.374e001
903.200   2.374e001
903.300   2.374e001
903.400   2.374e001
903.500   2.374e001
903.600   2.374e001
903.700   2.374e001
903.800   2.374e001
903.900   2.374e001
904.000   2.374e001
904.100   2.374e001
904.200   2.374e001
904.300   2.374e001
904.400   2.374e001
904.500   2.374e001
904.600   2.374e001
904.700   2.374e001
904.800   2.374e001
904.900   2.374e001
905.000   2.374e001
905.100   2.374e001
905.200   2.374e001
905.300   2.374e001
905.400   2.374e001
905.500   2.374e001
905.600   2.374e001
905.700   2.374e001
905.800   2.374e001
905.900   2.374e001
906.000   2.374e001
906.100   2.374e001
906.200   2.374e001
906.300   2.374e001
906.400   2.374e001
906.500   2.374e001
906.600   2.374e001
906.700   2.374e001
906.800   2.374e001
906.900   2.374e001
907.000   2.374e001
907.100   2.374e001
907.200   2.374e001
907.300   2.374e001
907.400   2.374e001
907.500   2.374e001
907.600   2.374e001
907.700   2.374e001
907.800   2.374e001
907.900   2.374e001
908.000   2.374e001
908.100   2.374e001
908.200   2.374e001
908.300   2.374e001
908.400   2.374e001
908.500   2.374e001
908.600   2.374e001
908.700   2.374e001
908.800   2.374e001
908.900   2.374e001
909.000   2.374e001
909.100   2.374e001
909.200   2.374e001
909.300   2.374e001
909.400   2.374e001
909.500   2.374e001
909.600   2.374e001
909.700   2.374e001
909.800   2.374e001
909.900   2.374e001
910.000   2.374e001
910.100   2.374e001
910.200   2.374e001
910.300   2.374e001
910.400   2.374e001
910.500   2.374e001
910.600   2.374e001
910.700   2.374e001
910.800   2.374e001
910.900   2.374e001
911.000   2.374e001
911.100   2.374e001
911.200   2.374e001
911.300   2.374e001
911.400   2.374e001
911.500   2.374e001
911.600   2.374e001
911.700   2.374e001
911.800   2.374e001
911.900   2.374e001
912.000   2.374e001
912.100   2.374e001
912.200   2.374e001
912.300   2.374e001
912.400   2.374e001
912.500   2.374e001
912.600   2.374e001
912.700   2.374e001
912.800   2.374e001
912.900   2.374e001
913.000   2.374e001
913.100   2.374e001
913.200   2.374e001
913.300   2.374e001
913.400   2.374e001
913.500   2.374e001
913.600   2.374e001
913.700   2.374e001
913.800   2.374e001
913.900   2.374e001
914.000   2.374e001
914.100   2.374e001
914.200   2.374e001
914.300   2.374e001
914.400   2.374e001
914.500   2.374e001
914.600   2.374e001
914.700   2.374e001
914.800   2.374e001
914.900   2.374e001
915.000   2.374e001
915.100   2.374e001
915.200   2.374e001
915.300   2.374e001
915.400   2.374e001
915.500   2.374e001
915.600   2.374e001
915.700   2.374e001
915.800   2.374e001
915.900   2.374e001
916.000   2.374e001
916.100   2.374e001
916.200   2.374e001
916.300   2.374e001
916.400   2.374e001
916.500   2.374e001
916.600   2.374e001
916.700   2.374e001
916.800   2.374e001
916.900   2.374e001
917.000   2.374e001
917.100   2.374e001
917.200   2.373e001
917.300   2.373e001
917.400   2.373e001
917.500   2.373e001
917.600   2.373e001
917.700   2.373e001
917.800   2.373e001
917.900   2.373e001
918.000   2.373e001
918.100   2.373e001
918.200   2.373e001
918.300   2.373e001
918.400   2.373e001
918.500   2.373e001
918.600   2.373e001
918.700   2.373e001
918.800   2.373e001
918.900   2.373e001
919.000   2.373e001
919.100   2.373e001
919.200   2.373e001
919.300   2.373e001
919.400   2.373e001
919.500   2.373e001
919.600   2.373e001
919.700   2.373e001
919.800   2.373e001
919.900   2.373e001
920.000   2.373e001
920.100   2.373e001
920.200   2.373e001
920.300   2.373e001
920.400   2.373e001
920.500   2.373e001
920.600   2.373e001
920.700   2.373e001
920.800   2.373e001
920.900   2.373e001
921.000   2.373e001
921.100   2.373e001
921.200   2.373e001
921.300   2.373e001
921.400   2.373e001
921.500   2.373e001
921.600   2.373e001
921.700   2.373e001
921.800   2.373e001
921.900   2.373e001
922.000   2.373e001
922.100   2.373e001
922.200   2.373e001
922.300   2.372e001
922.400   2.372e001
922.500   2.372e001
922.600   2.372e001
922.700   2.372e001
922.800   2.372e001
922.900   2.372e001
923.000   2.372e001
923.100   2.372e001
923.200   2.372e001
923.300   2.372e001
923.400   2.372e001
923.500   2.372e001
923.600   2.372e001
923.700   2.372e001
923.800   2.372e001
923.900   2.372e001
924.000   2.372e001
924.100   2.372e001
924.200   2.372e001
924.300   2.372e001
924.400   2.372e001
924.500   2.372e001
924.600   2.372e001
924.700   2.372e001
924.800   2.372e001
924.900   2.372e001
925.000   2.372e001
925.100   2.372e001
925.200   2.372e001
925.300   2.372e001
925.400   2.372e001
925.500   2.372e001
925.600   2.372e001
925.700   2.372e001
925.800   2.372e001
925.900   2.372e001
926.000   2.372e001
926.100   2.372e001
926.200   2.371e001
926.300   2.371e001
926.400   2.371e001
926.500   2.371e001
926.600   2.371e001
926.700   2.371e001
926.800   2.371e001
926.900   2.371e001
927.000   2.371e001
927.100   2.371e001
927.200   2.371e001
927.300   2.371e001
927.400   2.371e001
927.500   2.371e001
927.600   2.371e001
927.700   2.371e001
927.800   2.371e001
927.900   2.371e001
928.000   2.371e001
928.100   2.371e001
928.200   2.371e001
928.300   2.371e001
928.400   2.371e001
928.500   2.371e001
928.600   2.371e001
928.700   2.371e001
928.800   2.371e001
928.900   2.371e001
929.000   2.371e001
929.100   2.371e001
929.200   2.371e001
929.300   2.371e001
929.400   2.370e001
929.500   2.370e001
929.600   2.370e001
929.700   2.370e001
929.800   2.370e001
929.900   2.370e001
930.000   2.370e001
930.100   2.370e001
930.200   2.370e001
930.300   2.370e001
930.400   2.370e001
930.500   2.370e001
930.600   2.370e001
930.700   2.370e001
930.800   2.370e001
930.900   2.370e001
931.000   2.370e001
931.100   2.370e001
931.200   2.370e001
931.300   2.370e001
931.400   2.370e001
931.500   2.370e001
931.600   2.370e001
931.700   2.370e001
931.800   2.370e001
931.900   2.370e001
932.000   2.370e001
932.100   2.370e001
932.200   2.370e001
932.300   2.369e001
932.400   2.369e001
932.500   2.369e001
932.600   2.369e001
932.700   2.369e001
932.800   2.369e001
932.900   2.369e001
933.000   2.369e001
933.100   2.369e001
933.200   2.369e001
933.300   2.369e001
933.400   2.369e001
933.500   2.369e001
933.600   2.369e001
933.700   2.369e001
933.800   2.369e001
933.900   2.369e001
934.000   2.369e001
934.100   2.369e001
934.200   2.369e001
934.300   2.369e001
934.400   2.369e001
934.500   2.369e001
934.600   2.369e001
934.700   2.369e001
934.800   2.368e001
934.900   2.368e001
935.000   2.368e001
935.100   2.368e001
935.200   2.368e001
935.300   2.368e001
935.400   2.368e001
935.500   2.368e001
935.600   2.368e001
935.700   2.368e001
935.800   2.368e001
935.900   2.368e001
936.000   2.368e001
936.100   2.368e001
936.200   2.368e001
936.300   2.368e001
936.400   2.368e001
936.500   2.368e001
936.600   2.368e001
936.700   2.368e001
936.800   2.368e001
936.900   2.368e001
937.000   2.368e001
937.100   2.368e001
937.200   2.367e001
937.300   2.367e001
937.400   2.367e001
937.500   2.367e001
937.600   2.367e001
937.700   2.367e001
937.800   2.367e001
937.900   2.367e001
938.000   2.367e001
938.100   2.367e001
938.200   2.367e001
938.300   2.367e001
938.400   2.367e001
938.500   2.367e001
938.600   2.367e001
938.700   2.367e001
938.800   2.367e001
938.900   2.367e001
939.000   2.367e001
939.100   2.367e001
939.200   2.367e001
939.300   2.367e001
939.400   2.366e001
939.500   2.366e001
939.600   2.366e001
939.700   2.366e001
939.800   2.366e001
939.900   2.366e001
940.000   2.366e001
940.100   2.366e001
940.200   2.366e001
940.300   2.366e001
940.400   2.366e001
940.500   2.366e001
940.600   2.366e001
940.700   2.366e001
940.800   2.366e001
940.900   2.366e001
941.000   2.366e001
941.100   2.366e001
941.200   2.366e001
941.300   2.366e001
941.400   2.366e001
941.500   2.365e001
941.600   2.365e001
941.700   2.365e001
941.800   2.365e001
941.900   2.365e001
942.000   2.365e001
942.100   2.365e001
942.200   2.365e001
942.300   2.365e001
942.400   2.365e001
942.500   2.365e001
942.600   2.365e001
942.700   2.365e001
942.800   2.365e001
942.900   2.365e001
943.000   2.365e001
943.100   2.365e001
943.200   2.365e001
943.300   2.365e001
943.400   2.365e001
943.500   2.364e001
943.600   2.364e001
943.700   2.364e001
943.800   2.364e001
943.900   2.364e001
944.000   2.364e001
944.100   2.364e001
944.200   2.364e001
944.300   2.364e001
944.400   2.364e001
944.500   2.364e001
944.600   2.364e001
944.700   2.364e001
944.800   2.364e001
944.900   2.364e001
945.000   2.364e001
945.100   2.364e001
945.200   2.364e001
945.300   2.363e001
945.400   2.363e001
945.500   2.363e001
945.600   2.363e001
945.700   2.363e001
945.800   2.363e001
945.900   2.363e001
946.000   2.363e001
946.100   2.363e001
946.200   2.363e001
946.300   2.363e001
946.400   2.363e001
946.500   2.363e001
946.600   2.363e001
946.700   2.363e001
946.800   2.363e001
946.900   2.363e001
947.000   2.363e001
947.100   2.362e001
947.200   2.362e001
947.300   2.362e001
947.400   2.362e001
947.500   2.362e001
947.600   2.362e001
947.700   2.362e001
947.800   2.362e001
947.900   2.362e001
948.000   2.362e001
948.100   2.362e001
948.200   2.362e001
948.300   2.362e001
948.400   2.362e001
948.500   2.362e001
948.600   2.362e001
948.700   2.362e001
948.800   2.362e001
948.900   2.361e001
949.000   2.361e001
949.100   2.361e001
949.200   2.361e001
949.300   2.361e001
949.400   2.361e001
949.500   2.361e001
949.600   2.361e001
949.700   2.361e001
949.800   2.361e001
949.900   2.361e001
950.000   2.361e001
950.100   2.361e001
950.200   2.361e001
950.300   2.361e001
950.400   2.361e001
950.500   2.360e001
950.600   2.360e001
950.700   2.360e001
950.800   2.360e001
950.900   2.360e001
951.000   2.360e001
951.100   2.360e001
951.200   2.360e001
951.300   2.360e001
951.400   2.360e001
951.500   2.360e001
951.600   2.360e001
951.700   2.360e001
951.800   2.360e001
951.900   2.360e001
952.000   2.360e001
952.100   2.360e001
952.200   2.359e001
952.300   2.359e001
952.400   2.359e001
952.500   2.359e001
952.600   2.359e001
952.700   2.359e001
952.800   2.359e001
952.900   2.359e001
953.000   2.359e001
953.100   2.359e001
953.200   2.359e001
953.300   2.359e001
953.400   2.359e001
953.500   2.359e001
953.600   2.359e001
953.700   2.358e001
953.800   2.358e001
953.900   2.358e001
954.000   2.358e001
954.100   2.358e001
954.200   2.358e001
954.300   2.358e001
954.400   2.358e001
954.500   2.358e001
954.600   2.358e001
954.700   2.358e001
954.800   2.358e001
954.900   2.358e001
955.000   2.358e001
955.100   2.358e001
955.200   2.357e001
955.300   2.357e001
955.400   2.357e001
955.500   2.357e001
955.600   2.357e001
955.700   2.357e001
955.800   2.357e001
955.900   2.357e001
956.000   2.357e001
956.100   2.357e001
956.200   2.357e001
956.300   2.357e001
956.400   2.357e001
956.500   2.357e001
956.600   2.357e001
956.700   2.356e001
956.800   2.356e001
956.900   2.356e001
957.000   2.356e001
957.100   2.356e001
957.200   2.356e001
957.300   2.356e001
957.400   2.356e001
957.500   2.356e001
957.600   2.356e001
957.700   2.356e001
957.800   2.356e001
957.900   2.356e001
958.000   2.356e001
958.100   2.356e001
958.200   2.355e001
958.300   2.355e001
958.400   2.355e001
958.500   2.355e001
958.600   2.355e001
958.700   2.355e001
958.800   2.355e001
958.900   2.355e001
959.000   2.355e001
959.100   2.355e001
959.200   2.355e001
959.300   2.355e001
959.400   2.355e001
959.500   2.355e001
959.600   2.354e001
959.700   2.354e001
959.800   2.354e001
959.900   2.354e001
960.000   2.354e001
960.100   2.354e001
960.200   2.354e001
960.300   2.354e001
960.400   2.354e001
960.500   2.354e001
960.600   2.354e001
960.700   2.354e001
960.800   2.354e001
960.900   2.353e001
961.000   2.353e001
961.100   2.353e001
961.200   2.353e001
961.300   2.353e001
961.400   2.353e001
961.500   2.353e001
961.600   2.353e001
961.700   2.353e001
961.800   2.353e001
961.900   2.353e001
962.000   2.353e001
962.100   2.353e001
962.200   2.353e001
962.300   2.352e001
962.400   2.352e001
962.500   2.352e001
962.600   2.352e001
962.700   2.352e001
962.800   2.352e001
962.900   2.352e001
963.000   2.352e001
963.100   2.352e001
963.200   2.352e001
963.300   2.352e001
963.400   2.352e001
963.500   2.352e001
963.600   2.351e001
963.700   2.351e001
963.800   2.351e001
963.900   2.351e001
964.000   2.351e001
964.100   2.351e001
964.200   2.351e001
964.300   2.351e001
964.400   2.351e001
964.500   2.351e001
964.600   2.351e001
964.700   2.351e001
964.800   2.351e001
964.900   2.350e001
965.000   2.350e001
965.100   2.350e001
965.200   2.350e001
965.300   2.350e001
965.400   2.350e001
965.500   2.350e001
965.600   2.350e001
965.700   2.350e001
965.800   2.350e001
965.900   2.350e001
966.000   2.350e001
966.100   2.349e001
966.200   2.349e001
966.300   2.349e001
966.400   2.349e001
966.500   2.349e001
966.600   2.349e001
966.700   2.349e001
966.800   2.349e001
966.900   2.349e001
967.000   2.349e001
967.100   2.349e001
967.200   2.349e001
967.300   2.349e001
967.400   2.348e001
967.500   2.348e001
967.600   2.348e001
967.700   2.348e001
967.800   2.348e001
967.900   2.348e001
968.000   2.348e001
968.100   2.348e001
968.200   2.348e001
968.300   2.348e001
968.400   2.348e001
968.500   2.348e001
968.600   2.347e001
968.700   2.347e001
968.800   2.347e001
968.900   2.347e001
969.000   2.347e001
969.100   2.347e001
969.200   2.347e001
969.300   2.347e001
969.400   2.347e001
969.500   2.347e001
969.600   2.347e001
969.700   2.347e001
969.800   2.346e001
969.900   2.346e001
970.000   2.346e001
970.100   2.346e001
970.200   2.346e001
970.300   2.346e001
970.400   2.346e001
970.500   2.346e001
970.600   2.346e001
970.700   2.346e001
970.800   2.346e001
970.900   2.346e001
971.000   2.345e001
971.100   2.345e001
971.200   2.345e001
971.300   2.345e001
971.400   2.345e001
971.500   2.345e001
971.600   2.345e001
971.700   2.345e001
971.800   2.345e001
971.900   2.345e001
972.000   2.345e001
972.100   2.344e001
972.200   2.344e001
972.300   2.344e001
972.400   2.344e001
972.500   2.344e001
972.600   2.344e001
972.700   2.344e001
972.800   2.344e001
972.900   2.344e001
973.000   2.344e001
973.100   2.344e001
973.200   2.344e001
973.300   2.343e001
973.400   2.343e001
973.500   2.343e001
973.600   2.343e001
973.700   2.343e001
973.800   2.343e001
973.900   2.343e001
974.000   2.343e001
974.100   2.343e001
974.200   2.343e001
974.300   2.343e001
974.400   2.342e001
974.500   2.342e001
974.600   2.342e001
974.700   2.342e001
974.800   2.342e001
974.900   2.342e001
975.000   2.342e001
975.100   2.342e001
975.200   2.342e001
975.300   2.342e001
975.400   2.342e001
975.500   2.341e001
975.600   2.341e001
975.700   2.341e001
975.800   2.341e001
975.900   2.341e001
976.000   2.341e001
976.100   2.341e001
976.200   2.341e001
976.300   2.341e001
976.400   2.341e001
976.500   2.341e001
976.600   2.340e001
976.700   2.340e001
976.800   2.340e001
976.900   2.340e001
977.000   2.340e001
977.100   2.340e001
977.200   2.340e001
977.300   2.340e001
977.400   2.340e001
977.500   2.340e001
977.600   2.340e001
977.700   2.339e001
977.800   2.339e001
977.900   2.339e001
978.000   2.339e001
978.100   2.339e001
978.200   2.339e001
978.300   2.339e001
978.400   2.339e001
978.500   2.339e001
978.600   2.339e001
978.700   2.339e001
978.800   2.338e001
978.900   2.338e001
979.000   2.338e001
979.100   2.338e001
979.200   2.338e001
979.300   2.338e001
979.400   2.338e001
979.500   2.338e001
979.600   2.338e001
979.700   2.338e001
979.800   2.337e001
979.900   2.337e001
980.000   2.337e001
980.100   2.337e001
980.200   2.337e001
980.300   2.337e001
980.400   2.337e001
980.500   2.337e001
980.600   2.337e001
980.700   2.337e001
980.800   2.337e001
980.900   2.336e001
981.000   2.336e001
981.100   2.336e001
981.200   2.336e001
981.300   2.336e001
981.400   2.336e001
981.500   2.336e001
981.600   2.336e001
981.700   2.336e001
981.800   2.336e001
981.900   2.335e001
982.000   2.335e001
982.100   2.335e001
982.200   2.335e001
982.300   2.335e001
982.400   2.335e001
982.500   2.335e001
982.600   2.335e001
982.700   2.335e001
982.800   2.335e001
982.900   2.335e001
983.000   2.334e001
983.100   2.334e001
983.200   2.334e001
983.300   2.334e001
983.400   2.334e001
983.500   2.334e001
983.600   2.334e001
983.700   2.334e001
983.800   2.334e001
983.900   2.334e001
984.000   2.333e001
984.100   2.333e001
984.200   2.333e001
984.300   2.333e001
984.400   2.333e001
984.500   2.333e001
984.600   2.333e001
984.700   2.333e001
984.800   2.333e001
984.900   2.333e001
985.000   2.332e001
985.100   2.332e001
985.200   2.332e001
985.300   2.332e001
985.400   2.332e001
985.500   2.332e001
985.600   2.332e001
985.700   2.332e001
985.800   2.332e001
985.900   2.332e001
986.000   2.331e001
986.100   2.331e001
986.200   2.331e001
986.300   2.331e001
986.400   2.331e001
986.500   2.331e001
986.600   2.331e001
986.700   2.331e001
986.800   2.331e001
986.900   2.330e001
987.000   2.330e001
987.100   2.330e001
987.200   2.330e001
987.300   2.330e001
987.400   2.330e001
987.500   2.330e001
987.600   2.330e001
987.700   2.330e001
987.800   2.330e001
987.900   2.329e001
988.000   2.329e001
988.100   2.329e001
988.200   2.329e001
988.300   2.329e001
988.400   2.329e001
988.500   2.329e001
988.600   2.329e001
988.700   2.329e001
988.800   2.329e001
988.900   2.328e001
989.000   2.328e001
989.100   2.328e001
989.200   2.328e001
989.300   2.328e001
989.400   2.328e001
989.500   2.328e001
989.600   2.328e001
989.700   2.328e001
989.800   2.327e001
989.900   2.327e001
990.000   2.327e001
990.100   2.327e001
990.200   2.327e001
990.300   2.327e001
990.400   2.327e001
990.500   2.327e001
990.600   2.327e001
990.700   2.327e001
990.800   2.326e001
990.900   2.326e001
991.000   2.326e001
991.100   2.326e001
991.200   2.326e001
991.300   2.326e001
991.400   2.326e001
991.500   2.326e001
991.600   2.326e001
991.700   2.325e001
991.800   2.325e001
991.900   2.325e001
992.000   2.325e001
992.100   2.325e001
992.200   2.325e001
992.300   2.325e001
992.400   2.325e001
992.500   2.325e001
992.600   2.324e001
992.700   2.324e001
992.800   2.324e001
992.900   2.324e001
993.000   2.324e001
993.100   2.324e001
993.200   2.324e001
993.300   2.324e001
993.400   2.324e001
993.500   2.323e001
993.600   2.323e001
993.700   2.323e001
993.800   2.323e001
993.900   2.323e001
994.000   2.323e001
994.100   2.323e001
994.200   2.323e001
994.300   2.323e001
994.400   2.323e001
994.500   2.322e001
994.600   2.322e001
994.700   2.322e001
994.800   2.322e001
994.900   2.322e001
995.000   2.322e001
995.100   2.322e001
995.200   2.322e001
995.300   2.322e001
995.400   2.321e001
995.500   2.321e001
995.600   2.321e001
995.700   2.321e001
995.800   2.321e001
995.900   2.321e001
996.000   2.321e001
996.100   2.321e001
996.200   2.321e001
996.300   2.320e001
996.400   2.320e001
996.500   2.320e001
996.600   2.320e001
996.700   2.320e001
996.800   2.320e001
996.900   2.320e001
997.000   2.320e001
997.100   2.320e001
997.200   2.319e001
997.300   2.319e001
997.400   2.319e001
997.500   2.319e001
997.600   2.319e001
997.700   2.319e001
997.800   2.319e001
997.900   2.319e001
998.000   2.318e001
998.100   2.318e001
998.200   2.318e001
998.300   2.318e001
998.400   2.318e001
998.500   2.318e001
998.600   2.318e001
998.700   2.318e001
998.800   2.318e001
998.900   2.317e001
999.000   2.317e001
999.100   2.317e001
999.200   2.317e001
999.300   2.317e001
999.400   2.317e001
999.500   2.317e001
999.600   2.317e001
999.700   2.317e001
999.800   2.316e001
999.900   2.316e001
1000.000   2.316e001
1000.100   2.316e001
1000.200   2.316e001
1000.300   2.316e001
1000.400   2.316e001
1000.500   2.316e001
1000.600   2.316e001
1000.700   2.315e001
1000.800   2.315e001
1000.900   2.315e001
1001.000   2.315e001
1001.100   2.315e001
1001.200   2.315e001
1001.300   2.315e001
1001.400   2.315e001
1001.500   2.314e001
1001.600   2.314e001
1001.700   2.314e001
1001.800   2.314e001
1001.900   2.314e001
1002.000   2.314e001
1002.100   2.314e001
1002.200   2.314e001
1002.300   2.314e001
1002.400   2.313e001
1002.500   2.313e001
1002.600   2.313e001
1002.700   2.313e001
1002.800   2.313e001
1002.900   2.313e001
1003.000   2.313e001
1003.100   2.313e001
1003.200   2.312e001
1003.300   2.312e001
1003.400   2.312e001
1003.500   2.312e001
1003.600   2.312e001
1003.700   2.312e001
1003.800   2.312e001
1003.900   2.312e001
1004.000   2.312e001
1004.100   2.311e001
1004.200   2.311e001
1004.300   2.311e001
1004.400   2.311e001
1004.500   2.311e001
1004.600   2.311e001
1004.700   2.311e001
1004.800   2.311e001
1004.900   2.310e001
1005.000   2.310e001
1005.100   2.310e001
1005.200   2.310e001
1005.300   2.310e001
1005.400   2.310e001
1005.500   2.310e001
1005.600   2.310e001
1005.700   2.309e001
1005.800   2.309e001
1005.900   2.309e001
1006.000   2.309e001
1006.100   2.309e001
1006.200   2.309e001
1006.300   2.309e001
1006.400   2.309e001
1006.500   2.309e001
1006.600   2.308e001
1006.700   2.308e001
1006.800   2.308e001
1006.900   2.308e001
1007.000   2.308e001
1007.100   2.308e001
1007.200   2.308e001
1007.300   2.308e001
1007.400   2.307e001
1007.500   2.307e001
1007.600   2.307e001
1007.700   2.307e001
1007.800   2.307e001
1007.900   2.307e001
1008.000   2.307e001
1008.100   2.307e001
1008.200   2.306e001
1008.300   2.306e001
1008.400   2.306e001
1008.500   2.306e001
1008.600   2.306e001
1008.700   2.306e001
1008.800   2.306e001
1008.900   2.306e001
1009.000   2.305e001
1009.100   2.305e001
1009.200   2.305e001
1009.300   2.305e001
1009.400   2.305e001
1009.500   2.305e001
1009.600   2.305e001
1009.700   2.305e001
1009.800   2.304e001
1009.900   2.304e001
1010.000   2.304e001
1010.100   2.304e001
1010.200   2.304e001
1010.300   2.304e001
1010.400   2.304e001
1010.500   2.304e001
1010.600   2.303e001
1010.700   2.303e001
1010.800   2.303e001
1010.900   2.303e001
1011.000   2.303e001
1011.100   2.303e001
1011.200   2.303e001
1011.300   2.303e001
1011.400   2.302e001
1011.500   2.302e001
1011.600   2.302e001
1011.700   2.302e001
1011.800   2.302e001
1011.900   2.302e001
1012.000   2.302e001
1012.100   2.302e001
1012.200   2.301e001
1012.300   2.301e001
1012.400   2.301e001
1012.500   2.301e001
1012.600   2.301e001
1012.700   2.301e001
1012.800   2.301e001
1012.900   2.301e001
1013.000   2.300e001
1013.100   2.300e001
1013.200   2.300e001
1013.300   2.300e001
1013.400   2.300e001
1013.500   2.300e001
1013.600   2.300e001
1013.700   2.300e001
1013.800   2.299e001
1013.900   2.299e001
1014.000   2.299e001
1014.100   2.299e001
1014.200   2.299e001
1014.300   2.299e001
1014.400   2.299e001
1014.500   2.299e001
1014.600   2.298e001
1014.700   2.298e001
1014.800   2.298e001
1014.900   2.298e001
1015.000   2.298e001
1015.100   2.298e001
1015.200   2.298e001
1015.300   2.297e001
1015.400   2.297e001
1015.500   2.297e001
1015.600   2.297e001
1015.700   2.297e001
1015.800   2.297e001
1015.900   2.297e001
1016.000   2.297e001
1016.100   2.296e001
1016.200   2.296e001
1016.300   2.296e001
1016.400   2.296e001
1016.500   2.296e001
1016.600   2.296e001
1016.700   2.296e001
1016.800   2.296e001
1016.900   2.295e001
1017.000   2.295e001
1017.100   2.295e001
1017.200   2.295e001
1017.300   2.295e001
1017.400   2.295e001
1017.500   2.295e001
1017.600   2.294e001
1017.700   2.294e001
1017.800   2.294e001
1017.900   2.294e001
1018.000   2.294e001
1018.100   2.294e001
1018.200   2.294e001
1018.300   2.294e001
1018.400   2.293e001
1018.500   2.293e001
1018.600   2.293e001
1018.700   2.293e001
1018.800   2.293e001
1018.900   2.293e001
1019.000   2.293e001
1019.100   2.293e001
1019.200   2.292e001
1019.300   2.292e001
1019.400   2.292e001
1019.500   2.292e001
1019.600   2.292e001
1019.700   2.292e001
1019.800   2.292e001
1019.900   2.291e001
1020.000   2.291e001
1020.100   2.291e001
1020.200   2.291e001
1020.300   2.291e001
1020.400   2.291e001
1020.500   2.291e001
1020.600   2.291e001
1020.700   2.290e001
1020.800   2.290e001
1020.900   2.290e001
1021.000   2.290e001
1021.100   2.290e001
1021.200   2.290e001
1021.300   2.290e001
1021.400   2.289e001
1021.500   2.289e001
1021.600   2.289e001
1021.700   2.289e001
1021.800   2.289e001
1021.900   2.289e001
1022.000   2.289e001
1022.100   2.289e001
1022.200   2.288e001
1022.300   2.288e001
1022.400   2.288e001
1022.500   2.288e001
1022.600   2.288e001
1022.700   2.288e001
1022.800   2.288e001
1022.900   2.287e001
1023.000   2.287e001
1023.100   2.287e001
1023.200   2.287e001
1023.300   2.287e001
1023.400   2.287e001
1023.500   2.287e001
1023.600   2.286e001
1023.700   2.286e001
1023.800   2.286e001
1023.900   2.286e001
1024.000   2.286e001
1024.100   2.286e001
1024.200   2.286e001
1024.300   2.286e001
1024.400   2.285e001
1024.500   2.285e001
1024.600   2.285e001
1024.700   2.285e001
1024.800   2.285e001
1024.900   2.285e001
1025.000   2.285e001
1025.100   2.284e001
1025.200   2.284e001
1025.300   2.284e001
1025.400   2.284e001
1025.500   2.284e001
1025.600   2.284e001
1025.700   2.284e001
1025.800   2.283e001
1025.900   2.283e001
1026.000   2.283e001
1026.100   2.283e001
1026.200   2.283e001
1026.300   2.283e001
1026.400   2.283e001
1026.500   2.282e001
1026.600   2.282e001
1026.700   2.282e001
1026.800   2.282e001
1026.900   2.282e001
1027.000   2.282e001
1027.100   2.282e001
1027.200   2.282e001
1027.300   2.281e001
1027.400   2.281e001
1027.500   2.281e001
1027.600   2.281e001
1027.700   2.281e001
1027.800   2.281e001
1027.900   2.281e001
1028.000   2.280e001
1028.100   2.280e001
1028.200   2.280e001
1028.300   2.280e001
1028.400   2.280e001
1028.500   2.280e001
1028.600   2.280e001
1028.700   2.279e001
1028.800   2.279e001
1028.900   2.279e001
1029.000   2.279e001
1029.100   2.279e001
1029.200   2.279e001
1029.300   2.279e001
1029.400   2.278e001
1029.500   2.278e001
1029.600   2.278e001
1029.700   2.278e001
1029.800   2.278e001
1029.900   2.278e001
1030.000   2.278e001
1030.100   2.277e001
1030.200   2.277e001
1030.300   2.277e001
1030.400   2.277e001
1030.500   2.277e001
1030.600   2.277e001
1030.700   2.277e001
1030.800   2.276e001
1030.900   2.276e001
1031.000   2.276e001
1031.100   2.276e001
1031.200   2.276e001
1031.300   2.276e001
1031.400   2.276e001
1031.500   2.275e001
1031.600   2.275e001
1031.700   2.275e001
1031.800   2.275e001
1031.900   2.275e001
1032.000   2.275e001
1032.100   2.275e001
1032.200   2.274e001
1032.300   2.274e001
1032.400   2.274e001
1032.500   2.274e001
1032.600   2.274e001
1032.700   2.274e001
1032.800   2.274e001
1032.900   2.273e001
1033.000   2.273e001
1033.100   2.273e001
1033.200   2.273e001
1033.300   2.273e001
1033.400   2.273e001
1033.500   2.273e001
1033.600   2.272e001
1033.700   2.272e001
1033.800   2.272e001
1033.900   2.272e001
1034.000   2.272e001
1034.100   2.272e001
1034.200   2.272e001
1034.300   2.271e001
1034.400   2.271e001
1034.500   2.271e001
1034.600   2.271e001
1034.700   2.271e001
1034.800   2.271e001
1034.900   2.271e001
1035.000   2.270e001
1035.100   2.270e001
1035.200   2.270e001
1035.300   2.270e001
1035.400   2.270e001
1035.500   2.270e001
1035.600   2.270e001
1035.700   2.269e001
1035.800   2.269e001
1035.900   2.269e001
1036.000   2.269e001
1036.100   2.269e001
1036.200   2.269e001
1036.300   2.269e001
1036.400   2.268e001
1036.500   2.268e001
1036.600   2.268e001
1036.700   2.268e001
1036.800   2.268e001
1036.900   2.268e001
1037.000   2.268e001
1037.100   2.267e001
1037.200   2.267e001
1037.300   2.267e001
1037.400   2.267e001
1037.500   2.267e001
1037.600   2.267e001
1037.700   2.267e001
1037.800   2.266e001
1037.900   2.266e001
1038.000   2.266e001
1038.100   2.266e001
1038.200   2.266e001
1038.300   2.266e001
1038.400   2.266e001
1038.500   2.265e001
1038.600   2.265e001
1038.700   2.265e001
1038.800   2.265e001
1038.900   2.265e001
1039.000   2.265e001
1039.100   2.264e001
1039.200   2.264e001
1039.300   2.264e001
1039.400   2.264e001
1039.500   2.264e001
1039.600   2.264e001
1039.700   2.264e001
1039.800   2.263e001
1039.900   2.263e001
1040.000   2.263e001
1040.100   2.263e001
1040.200   2.263e001
1040.300   2.263e001
1040.400   2.263e001
1040.500   2.262e001
1040.600   2.262e001
1040.700   2.262e001
1040.800   2.262e001
1040.900   2.262e001
1041.000   2.262e001
1041.100   2.262e001
1041.200   2.261e001
1041.300   2.261e001
1041.400   2.261e001
1041.500   2.261e001
1041.600   2.261e001
1041.700   2.261e001
1041.800   2.260e001
1041.900   2.260e001
1042.000   2.260e001
1042.100   2.260e001
1042.200   2.260e001
1042.300   2.260e001
1042.400   2.260e001
1042.500   2.259e001
1042.600   2.259e001
1042.700   2.259e001
1042.800   2.259e001
1042.900   2.259e001
1043.000   2.259e001
1043.100   2.259e001
1043.200   2.258e001
1043.300   2.258e001
1043.400   2.258e001
1043.500   2.258e001
1043.600   2.258e001
1043.700   2.258e001
1043.800   2.257e001
1043.900   2.257e001
1044.000   2.257e001
1044.100   2.257e001
1044.200   2.257e001
1044.300   2.257e001
1044.400   2.257e001
1044.500   2.256e001
1044.600   2.256e001
1044.700   2.256e001
1044.800   2.256e001
1044.900   2.256e001
1045.000   2.256e001
1045.100   2.256e001
1045.200   2.255e001
1045.300   2.255e001
1045.400   2.255e001
1045.500   2.255e001
1045.600   2.255e001
1045.700   2.255e001
1045.800   2.254e001
1045.900   2.254e001
1046.000   2.254e001
1046.100   2.254e001
1046.200   2.254e001
1046.300   2.254e001
1046.400   2.254e001
1046.500   2.253e001
1046.600   2.253e001
1046.700   2.253e001
1046.800   2.253e001
1046.900   2.253e001
1047.000   2.253e001
1047.100   2.252e001
1047.200   2.252e001
1047.300   2.252e001
1047.400   2.252e001
1047.500   2.252e001
1047.600   2.252e001
1047.700   2.252e001
1047.800   2.251e001
1047.900   2.251e001
1048.000   2.251e001
1048.100   2.251e001
1048.200   2.251e001
1048.300   2.251e001
1048.400   2.250e001
1048.500   2.250e001
1048.600   2.250e001
1048.700   2.250e001
1048.800   2.250e001
1048.900   2.250e001
1049.000   2.250e001
1049.100   2.249e001
1049.200   2.249e001
1049.300   2.249e001
1049.400   2.249e001
1049.500   2.249e001
1049.600   2.249e001
1049.700   2.248e001
1049.800   2.248e001
1049.900   2.248e001
1050.000   2.248e001
1050.100   2.248e001
1050.200   2.248e001
1050.300   2.248e001
1050.400   2.247e001
1050.500   2.247e001
1050.600   2.247e001
1050.700   2.247e001
1050.800   2.247e001
1050.900   2.247e001
1051.000   2.246e001
1051.100   2.246e001
1051.200   2.246e001
1051.300   2.246e001
1051.400   2.246e001
1051.500   2.246e001
1051.600   2.246e001
1051.700   2.245e001
1051.800   2.245e001
1051.900   2.245e001
1052.000   2.245e001
1052.100   2.245e001
1052.200   2.245e001
1052.300   2.244e001
1052.400   2.244e001
1052.500   2.244e001
1052.600   2.244e001
1052.700   2.244e001
1052.800   2.244e001
1052.900   2.243e001
1053.000   2.243e001
1053.100   2.243e001
1053.200   2.243e001
1053.300   2.243e001
1053.400   2.243e001
1053.500   2.243e001
1053.600   2.242e001
1053.700   2.242e001
1053.800   2.242e001
1053.900   2.242e001
1054.000   2.242e001
1054.100   2.242e001
1054.200   2.241e001
1054.300   2.241e001
1054.400   2.241e001
1054.500   2.241e001
1054.600   2.241e001
1054.700   2.241e001
1054.800   2.240e001
1054.900   2.240e001
1055.000   2.240e001
1055.100   2.240e001
1055.200   2.240e001
1055.300   2.240e001
1055.400   2.240e001
1055.500   2.239e001
1055.600   2.239e001
1055.700   2.239e001
1055.800   2.239e001
1055.900   2.239e001
1056.000   2.239e001
1056.100   2.238e001
1056.200   2.238e001
1056.300   2.238e001
1056.400   2.238e001
1056.500   2.238e001
1056.600   2.238e001
1056.700   2.237e001
1056.800   2.237e001
1056.900   2.237e001
1057.000   2.237e001
1057.100   2.237e001
1057.200   2.237e001
1057.300   2.237e001
1057.400   2.236e001
1057.500   2.236e001
1057.600   2.236e001
1057.700   2.236e001
1057.800   2.236e001
1057.900   2.236e001
1058.000   2.235e001
1058.100   2.235e001
1058.200   2.235e001
1058.300   2.235e001
1058.400   2.235e001
1058.500   2.235e001
1058.600   2.234e001
1058.700   2.234e001
1058.800   2.234e001
1058.900   2.234e001
1059.000   2.234e001
1059.100   2.234e001
1059.200   2.233e001
1059.300   2.233e001
1059.400   2.233e001
1059.500   2.233e001
1059.600   2.233e001
1059.700   2.233e001
1059.800   2.233e001
1059.900   2.232e001
1060.000   2.232e001
1060.100   2.232e001
1060.200   2.232e001
1060.300   2.232e001
1060.400   2.232e001
1060.500   2.231e001
1060.600   2.231e001
1060.700   2.231e001
1060.800   2.231e001
1060.900   2.231e001
1061.000   2.231e001
1061.100   2.230e001
1061.200   2.230e001
1061.300   2.230e001
1061.400   2.230e001
1061.500   2.230e001
1061.600   2.230e001
1061.700   2.229e001
1061.800   2.229e001
1061.900   2.229e001
1062.000   2.229e001
1062.100   2.229e001
1062.200   2.229e001
1062.300   2.229e001
1062.400   2.228e001
1062.500   2.228e001
1062.600   2.228e001
1062.700   2.228e001
1062.800   2.228e001
1062.900   2.228e001
1063.000   2.227e001
1063.100   2.227e001
1063.200   2.227e001
1063.300   2.227e001
1063.400   2.227e001
1063.500   2.227e001
1063.600   2.226e001
1063.700   2.226e001
1063.800   2.226e001
1063.900   2.226e001
1064.000   2.226e001
1064.100   2.226e001
1064.200   2.225e001
1064.300   2.225e001
1064.400   2.225e001
1064.500   2.225e001
1064.600   2.225e001
1064.700   2.225e001
1064.800   2.224e001
1064.900   2.224e001
1065.000   2.224e001
1065.100   2.224e001
1065.200   2.224e001
1065.300   2.224e001
1065.400   2.223e001
1065.500   2.223e001
1065.600   2.223e001
1065.700   2.223e001
1065.800   2.223e001
1065.900   2.223e001
1066.000   2.222e001
1066.100   2.222e001
1066.200   2.222e001
1066.300   2.222e001
1066.400   2.222e001
1066.500   2.222e001
1066.600   2.221e001
1066.700   2.221e001
1066.800   2.221e001
1066.900   2.221e001
1067.000   2.221e001
1067.100   2.221e001
1067.200   2.220e001
1067.300   2.220e001
1067.400   2.220e001
1067.500   2.220e001
1067.600   2.220e001
1067.700   2.220e001
1067.800   2.220e001
1067.900   2.219e001
1068.000   2.219e001
1068.100   2.219e001
1068.200   2.219e001
1068.300   2.219e001
1068.400   2.219e001
1068.500   2.218e001
1068.600   2.218e001
1068.700   2.218e001
1068.800   2.218e001
1068.900   2.218e001
1069.000   2.218e001
1069.100   2.217e001
1069.200   2.217e001
1069.300   2.217e001
1069.400   2.217e001
1069.500   2.217e001
1069.600   2.217e001
1069.700   2.216e001
1069.800   2.216e001
1069.900   2.216e001
1070.000   2.216e001
1070.100   2.216e001
1070.200   2.216e001
1070.300   2.215e001
1070.400   2.215e001
1070.500   2.215e001
1070.600   2.215e001
1070.700   2.215e001
1070.800   2.215e001
1070.900   2.214e001
1071.000   2.214e001
1071.100   2.214e001
1071.200   2.214e001
1071.300   2.214e001
1071.400   2.214e001
1071.500   2.213e001
1071.600   2.213e001
1071.700   2.213e001
1071.800   2.213e001
1071.900   2.213e001
1072.000   2.213e001
1072.100   2.212e001
1072.200   2.212e001
1072.300   2.212e001
1072.400   2.212e001
1072.500   2.212e001
1072.600   2.212e001
1072.700   2.211e001
1072.800   2.211e001
1072.900   2.211e001
1073.000   2.211e001
1073.100   2.211e001
1073.200   2.211e001
1073.300   2.210e001
1073.400   2.210e001
1073.500   2.210e001
1073.600   2.210e001
1073.700   2.210e001
1073.800   2.210e001
1073.900   2.209e001
1074.000   2.209e001
1074.100   2.209e001
1074.200   2.209e001
1074.300   2.209e001
1074.400   2.208e001
1074.500   2.208e001
1074.600   2.208e001
1074.700   2.208e001
1074.800   2.208e001
1074.900   2.208e001
1075.000   2.207e001
1075.100   2.207e001
1075.200   2.207e001
1075.300   2.207e001
1075.400   2.207e001
1075.500   2.207e001
1075.600   2.206e001
1075.700   2.206e001
1075.800   2.206e001
1075.900   2.206e001
1076.000   2.206e001
1076.100   2.206e001
1076.200   2.205e001
1076.300   2.205e001
1076.400   2.205e001
1076.500   2.205e001
1076.600   2.205e001
1076.700   2.205e001
1076.800   2.204e001
1076.900   2.204e001
1077.000   2.204e001
1077.100   2.204e001
1077.200   2.204e001
1077.300   2.204e001
1077.400   2.203e001
1077.500   2.203e001
1077.600   2.203e001
1077.700   2.203e001
1077.800   2.203e001
1077.900   2.203e001
1078.000   2.202e001
1078.100   2.202e001
1078.200   2.202e001
1078.300   2.202e001
1078.400   2.202e001
1078.500   2.202e001
1078.600   2.201e001
1078.700   2.201e001
1078.800   2.201e001
1078.900   2.201e001
1079.000   2.201e001
1079.100   2.201e001
1079.200   2.200e001
1079.300   2.200e001
1079.400   2.200e001
1079.500   2.200e001
1079.600   2.200e001
1079.700   2.200e001
1079.800   2.199e001
1079.900   2.199e001
1080.000   2.199e001
1080.100   2.199e001
1080.200   2.199e001
1080.300   2.198e001
1080.400   2.198e001
1080.500   2.198e001
1080.600   2.198e001
1080.700   2.198e001
1080.800   2.198e001
1080.900   2.197e001
1081.000   2.197e001
1081.100   2.197e001
1081.200   2.197e001
1081.300   2.197e001
1081.400   2.197e001
1081.500   2.196e001
1081.600   2.196e001
1081.700   2.196e001
1081.800   2.196e001
1081.900   2.196e001
1082.000   2.196e001
1082.100   2.195e001
1082.200   2.195e001
1082.300   2.195e001
1082.400   2.195e001
1082.500   2.195e001
1082.600   2.195e001
1082.700   2.194e001
1082.800   2.194e001
1082.900   2.194e001
1083.000   2.194e001
1083.100   2.194e001
1083.200   2.194e001
1083.300   2.193e001
1083.400   2.193e001
1083.500   2.193e001
1083.600   2.193e001
1083.700   2.193e001
1083.800   2.192e001
1083.900   2.192e001
1084.000   2.192e001
1084.100   2.192e001
1084.200   2.192e001
1084.300   2.192e001
1084.400   2.191e001
1084.500   2.191e001
1084.600   2.191e001
1084.700   2.191e001
1084.800   2.191e001
1084.900   2.191e001
1085.000   2.190e001
1085.100   2.190e001
1085.200   2.190e001
1085.300   2.190e001
1085.400   2.190e001
1085.500   2.190e001
1085.600   2.189e001
1085.700   2.189e001
1085.800   2.189e001
1085.900   2.189e001
1086.000   2.189e001
1086.100   2.188e001
1086.200   2.188e001
1086.300   2.188e001
1086.400   2.188e001
1086.500   2.188e001
1086.600   2.188e001
1086.700   2.187e001
1086.800   2.187e001
1086.900   2.187e001
1087.000   2.187e001
1087.100   2.187e001
1087.200   2.187e001
1087.300   2.186e001
1087.400   2.186e001
1087.500   2.186e001
1087.600   2.186e001
1087.700   2.186e001
1087.800   2.186e001
1087.900   2.185e001
1088.000   2.185e001
1088.100   2.185e001
1088.200   2.185e001
1088.300   2.185e001
1088.400   2.184e001
1088.500   2.184e001
1088.600   2.184e001
1088.700   2.184e001
1088.800   2.184e001
1088.900   2.184e001
1089.000   2.183e001
1089.100   2.183e001
1089.200   2.183e001
1089.300   2.183e001
1089.400   2.183e001
1089.500   2.183e001
1089.600   2.182e001
1089.700   2.182e001
1089.800   2.182e001
1089.900   2.182e001
1090.000   2.182e001
1090.100   2.182e001
1090.200   2.181e001
1090.300   2.181e001
1090.400   2.181e001
1090.500   2.181e001
1090.600   2.181e001
1090.700   2.180e001
1090.800   2.180e001
1090.900   2.180e001
1091.000   2.180e001
1091.100   2.180e001
1091.200   2.180e001
1091.300   2.179e001
1091.400   2.179e001
1091.500   2.179e001
1091.600   2.179e001
1091.700   2.179e001
1091.800   2.179e001
1091.900   2.178e001
1092.000   2.178e001
1092.100   2.178e001
1092.200   2.178e001
1092.300   2.178e001
1092.400   2.177e001
1092.500   2.177e001
1092.600   2.177e001
1092.700   2.177e001
1092.800   2.177e001
1092.900   2.177e001
1093.000   2.176e001
1093.100   2.176e001
1093.200   2.176e001
1093.300   2.176e001
1093.400   2.176e001
1093.500   2.176e001
1093.600   2.175e001
1093.700   2.175e001
1093.800   2.175e001
1093.900   2.175e001
1094.000   2.175e001
1094.100   2.174e001
1094.200   2.174e001
1094.300   2.174e001
1094.400   2.174e001
1094.500   2.174e001
1094.600   2.174e001
1094.700   2.173e001
1094.800   2.173e001
1094.900   2.173e001
1095.000   2.173e001
1095.100   2.173e001
1095.200   2.173e001
1095.300   2.172e001
1095.400   2.172e001
1095.500   2.172e001
1095.600   2.172e001
1095.700   2.172e001
1095.800   2.171e001
1095.900   2.171e001
1096.000   2.171e001
1096.100   2.171e001
1096.200   2.171e001
1096.300   2.171e001
1096.400   2.170e001
1096.500   2.170e001
1096.600   2.170e001
1096.700   2.170e001
1096.800   2.170e001
1096.900   2.170e001
1097.000   2.169e001
1097.100   2.169e001
1097.200   2.169e001
1097.300   2.169e001
1097.400   2.169e001
1097.500   2.168e001
1097.600   2.168e001
1097.700   2.168e001
1097.800   2.168e001
1097.900   2.168e001
1098.000   2.168e001
1098.100   2.167e001
1098.200   2.167e001
1098.300   2.167e001
1098.400   2.167e001
1098.500   2.167e001
1098.600   2.166e001
1098.700   2.166e001
1098.800   2.166e001
1098.900   2.166e001
1099.000   2.166e001
1099.100   2.166e001
1099.200   2.165e001
1099.300   2.165e001
1099.400   2.165e001
1099.500   2.165e001
1099.600   2.165e001
1099.700   2.165e001
1099.800   2.164e001
1099.900   2.164e001
1100.000   2.164e001
