"Spectral Irradiance Values for OL FEL-M S/N: F-1744.","[W/(cm^2 nm)]",11/04/22,250.00,1100.00,10.00
1.832000E-008
3.288000E-008
5.515000E-008
8.720000E-008
1.318000E-007
1.913000E-007
2.690000E-007
3.688000E-007
4.926000E-007
6.460000E-007
8.298000E-007
1.044000E-006
1.294000E-006
1.579000E-006
1.899000E-006
2.252000E-006
2.644371E-006
3.073735E-006
3.537713E-006
4.033927E-006
4.560000E-006
5.115381E-006
5.695407E-006
6.297242E-006
6.918052E-006
7.555000E-006
8.205987E-006
8.867306E-006
9.535960E-006
1.020895E-005
1.088327E-005
1.155437E-005
1.221983E-005
1.287907E-005
1.352986E-005
1.417000E-005
1.479494E-005
1.540517E-005
1.599906E-005
1.657494E-005
1.713118E-005
1.766317E-005
1.817075E-005
1.865627E-005
1.911944E-005
1.956000E-005
1.997269E-005
2.036170E-005
2.072737E-005
2.107000E-005
2.138993E-005
2.168745E-005
2.196291E-005
2.221660E-005
2.244886E-005
2.266000E-005
2.284760E-005
2.301489E-005
2.316235E-005
2.329046E-005
2.339971E-005
2.349059E-005
2.356357E-005
2.361914E-005
2.365779E-005
2.368000E-005
2.367847E-005
2.366126E-005
2.362918E-005
2.358299E-005
2.352350E-005
2.345149E-005
2.336774E-005
2.327306E-005
2.316821E-005
2.305400E-005
2.293121E-005
2.280062E-005
2.266304E-005
2.251923E-005
2.237000E-005
2.221613E-005
2.205840E-005
2.189762E-005
2.173455E-005
2.157000E-005
